relative_time,AccX,AccY,AccZ,DecibelSource
0,-0.6617738342285157,4.162543945312501,8.32883010864258,53.12646953219183
59,-1.2509486389160156,4.381688232421875,8.333769836425782,52.338486236701996
126,-1.5648458862304688,5.132227478027344,8.54587875366211,53.135318830615354
192,-0.5243595886230469,4.496349792480469,9.425749053955078,48.79365437052282
259,-0.00987945556640625,4.065695343017579,8.86726043701172,46.01016431798449
328,-0.19609222412109376,3.8008959960937503,7.667804718017578,48.76356423100472
392,-0.28575576782226564,3.848497009277344,7.844886474609376,39.836262871245346
459,-0.3641926574707031,3.742816772460938,8.422385559082032,41.28302317164351
529,0.0814306640625,3.2362701416015627,12.465477905273438,38.906445362952475
593,-0.9313632202148437,2.9094996643066406,12.9187353515625,39.19914480659432
659,-1.9188597106933594,2.701731719970703,12.005933532714844,41.87436109773708
729,-1.483564910888672,2.8294161987304687,8.5789599609375,34.33449793761596
792,-1.3798306274414063,1.9887643432617188,7.1191955566406255,39.34094268355481
859,1.6732205200195314,0.9943821716308594,7.4429722595214844,39.70811610872518
929,2.6601182556152345,-0.5867797851562501,9.234297180175782,49.608464010729556
992,1.1916719055175782,5.356610870361329,7.878416748046876,54.16210992423001
1059,-0.14894027709960939,2.639012145996094,13.522879028320313,57.557064386693646
1128,-2.1966819763183594,3.570525054931641,10.950328674316406,56.87738477820436
1193,-1.5715818786621094,1.916015625,6.271807708740234,56.466497240676354
1259,-5.172643432617188,1.2751982116699219,5.511089630126953,51.71793712909947
1330,-3.068918151855469,2.1671932983398436,7.588918762207031,61.54045817112207
1393,-3.9914497375488285,5.342091064453125,12.856764221191407,61.822965037003854
1459,0.0844244384765625,5.285209350585938,16.138390045166016,50.72588081676911
1530,1.206042022705078,3.9318736267089847,10.430908813476563,45.65965817446667
1592,2.1022283935546877,1.2000544738769532,5.887107696533203,41.82271956694186
1659,0.8116122436523437,-0.1538800048828125,0.13322296142578124,39.12859475162355
1728,3.583697662353516,1.8458116149902344,2.1911434936523437,55.85912837184817
1792,5.500312042236328,2.8638446044921877,27.068211364746094,53.15569434640893
1859,3.5016682434082034,4.921465759277344,20.02386016845703,49.92831765934685
1929,-2.464325408935547,6.660249938964844,4.41447006225586,53.46912110858183
1992,-7.761360168457031,1.4684463500976563,0.8187973022460938,51.457742518257064
2059,-8.583600311279298,3.8887632751464847,1.488354949951172,65.1492185505032
2128,-2.7033782958984376,6.9269952392578125,15.781382446289063,67.77050730227656
2193,-5.711822204589844,16.73445053100586,30.82435043334961,50.29485236506347
2259,0.2692900085449219,8.436306610107422,12.958103485107422,58.98263223922298
2330,-0.3818559265136719,-3.9797740173339844,-1.5313156127929688,51.342855082349914
2392,4.050277404785157,-6.968908081054688,-7.9680802917480476,43.463920983173296
2459,1.6407380676269532,-5.121749267578125,-0.7906558227539063,44.35573643566113
2529,16.31337615966797,0.045505371093750004,11.69532943725586,43.14604473213435
2593,20.91375961303711,12.14035400390625,41.46167999267578,49.587597254584246
2659,0.19788848876953127,12.47850082397461,14.10382095336914,56.166351284745
2730,-12.075089721679689,2.3044578552246096,-2.6411077880859377,42.25386827388404
2793,-9.753118286132812,-0.26150619506835937,-4.666545867919922,47.24750875398776
2859,-6.884483642578125,7.416477355957031,-1.0065069580078125,64.07859281904928
2927,-7.4006103515625,20.241956634521486,27.555448150634767,50.5787141353417
2993,-2.815195770263672,12.734169158935547,18.984571380615236,54.09737055110621
3059,-1.1132350158691406,1.0852432250976562,0.5343887329101563,52.50934507174826
3129,5.905369720458984,-8.301886138916016,0.6803352355957032,47.518639295549846
3192,4.9960107421875,-8.04531967163086,-3.650009765625,40.27104865879351
3259,11.101065216064454,-4.14577880859375,5.813011779785157,36.3164666295842
3327,17.762213287353518,28.728558654785157,42.00894195556641,53.7337733199685
3393,-12.362492065429688,20.202738189697268,14.897021484375001,52.44277120801843
3459,-3.3651521301269534,9.706415405273438,-3.9404058837890625,46.86010291315285
3529,-10.096204833984375,0.31943572998046876,-4.469405822753907,57.751967065361924
3593,-7.839497680664063,2.096689910888672,-6.130052490234375,52.40928466356565
3659,-5.563330993652344,15.692467346191407,18.750907287597656,47.724757365692405
3727,-6.912774810791016,23.448438720703127,26.721232910156253,46.183828453417526
3793,-2.2001248168945313,7.680228881835938,5.12294677734375,46.77013498245982
3859,8.073910217285157,-5.796695709228516,-0.5752537536621094,38.18951311640173
3929,7.911797332763673,-7.776628417968751,-3.8615199279785157,35.313511645830594
3992,5.5447695922851565,-5.857469329833985,4.417164459228516,44.50541619546718
4059,-1.8733543395996095,17.104780426025393,32.22753250122071,49.93118660582817
4127,-11.311078491210939,19.54051528930664,19.80232086181641,50.93488225186768
4192,-5.367987213134766,8.663983154296876,-0.267044677734375,48.823138853569965
4259,-10.193951568603516,0.9569599914550782,-6.638844451904297,58.84169801365584
4329,-8.350085906982422,3.7907171630859375,-2.8728259277343753,67.28225910149632
4392,-7.52799545288086,13.885125732421876,19.48258575439453,63.64347776790112
4459,-10.297985229492188,22.787413330078127,21.382884063720706,65.28583013397164
4532,-2.0504360961914063,4.691992950439453,5.479804687500001,48.41647235992191
4592,5.28625717163086,-4.875062255859375,0.8994795227050781,57.095319854215376
4659,7.093000030517579,-8.630602569580079,-2.544558563232422,46.68012971641832
4730,8.534951477050782,-6.284082183837891,3.3262330627441408,50.729810734840804
4792,7.680079193115235,9.321266326904297,23.64887191772461,45.86159550294043
4859,2.964435424804688,26.038802032470706,36.06270721435547,54.03276701776853
4938,-6.8478099060058595,7.82018783569336,-5.562732238769532,57.46184105191879
4993,-12.08377166748047,-1.2588821411132813,-3.0196705627441407,55.30329070503069
5059,-9.82287322998047,2.18186279296875,-3.5113980102539064,66.8664583078452
5131,-8.202642517089844,6.864425354003907,14.718143463134766,65.61181911560583
5193,-6.938072204589844,19.316580963134765,20.990100860595703,48.33561439046896
5259,3.81526611328125,9.112300872802734,15.537689208984375,55.275757717764584
5331,10.257269897460938,-1.6461268615722657,0.868194580078125,54.89883982396457
5392,4.92221420288086,-3.4275723266601563,-1.8735040283203126,39.97823080745726
5459,7.481741638183594,-1.9679576110839845,-0.6867718505859375,47.1217811833829
5529,10.446925506591798,10.332862701416015,0.21959335327148438,45.263651274825214
5592,5.42232421875,18.703905029296877,9.402846679687501,51.82976417815461
5659,3.7947587585449223,14.696139221191407,13.117372283935547,51.612212158482
5731,-12.246483306884766,1.7360897827148438,1.0505154418945313,46.974385908880265
5792,-8.040679321289064,-1.5775694274902345,0.9877958679199219,58.2644023411961
5859,7.102430419921875,-4.678520965576172,12.70602767944336,69.18486630713267
5930,17.432598724365235,14.765145721435548,14.706467742919923,52.84207324943755
5993,6.437962188720704,19.894828491210937,14.519955596923829,49.25796662885386
6059,2.1559666442871093,10.934012603759767,7.702682189941407,50.90254524935817
6130,2.7728338623046875,-4.147874450683594,-2.6420059204101562,46.162443888292415
6192,0.9096583557128907,-2.621049499511719,-5.184169464111329,43.97348966176591
6259,10.297685852050781,-2.2722747802734378,9.559720458984376,56.74802373872222
6326,0.8029302978515626,2.630629577636719,27.07374984741211,65.11239995209367
6393,2.997666320800781,16.30903518676758,23.210882720947268,53.01967060079261
6459,-7.117998046875,-0.076640625,4.621489562988281,56.64017345766549
6532,-2.787503356933594,-2.2854473876953127,-4.665198669433594,45.83765368285
6592,-3.1439122009277347,-0.4816983032226563,2.6527835083007814,48.607212146535666
6659,-1.8657202148437502,4.782554626464844,19.57823684692383,42.93296245148464
6727,4.286186828613282,0.7668553161621094,31.274314727783203,57.000673817773816
6794,2.6062303161621094,-1.055006103515625,12.382250976562501,67.20513460537686
6859,2.132914581298828,-5.516179046630859,-2.3836431884765625,47.37001702063323
6931,-2.778372344970703,-7.348967742919922,-9.723779296875,34.9982449583958
6992,7.7865078735351565,-3.476670227050781,-11.17710708618164,38.15710539788963
7059,38.34650802612305,18.905535736083987,26.005421447753907,51.19631938967891
7128,8.99853744506836,13.955180053710938,20.377424926757815,59.61706732656956
7193,-11.210787048339844,0.0053887939453125,6.293961639404297,55.011798067309826
7259,-12.599598999023438,-1.2281959533691407,3.9772293090820314,61.467446061712664
7329,-4.02168685913086,5.296885070800782,-0.4357438659667969,65.7588158419693
7392,9.502090301513672,16.79911605834961,31.789692993164063,49.16122178799165
7459,22.810166015625,19.41821960449219,19.30086364746094,56.52602142586371
7531,2.863994293212891,0.6015989685058594,-1.2326866149902345,53.13363061923689
7592,4.7997688293457035,-6.900799713134766,-7.46332992553711,43.05372868641297
7659,3.389850769042969,-7.519463195800782,-9.596394195556641,49.032311097673535
7731,11.74846893310547,-2.1209394836425783,0.4489164733886719,40.502250378836536
7792,31.832054901123048,3.266956329345703,36.11420013427735,48.576520678192914
7859,7.608228607177735,6.2297451782226565,31.468760375976565,47.151673578484576
7930,-5.7101756286621095,2.0175045776367186,5.163362731933594,60.10420812798151
7993,-10.321486358642579,-3.437601470947266,2.844684448242188,52.023684199769
8059,-7.611222381591797,-1.1023077392578124,3.6395315551757816,47.46610849144197
8130,-2.2445823669433596,3.749103698730469,4.402944030761719,66.78100180697393
8193,7.514224090576172,5.095254364013672,40.40173416137696,60.361696097095994
8259,2.223476257324219,-0.5740562438964844,22.0531901550293,55.37167794637368
8331,4.730462951660156,-2.3113435363769534,-4.683909759521485,47.8603410225506
8393,1.7893789672851563,-8.105344848632813,-11.865226135253907,45.60444673193188
8459,5.469625854492188,-6.798861694335938,-9.386829986572266,56.98056156544196
8529,21.013152923583984,17.484391021728516,14.06879379272461,70.23195812412742
8593,13.154944152832032,19.068247375488284,29.305458984375,60.04183323597574
8659,-7.080725555419923,8.367599487304688,5.21201156616211,45.42327382773975
8732,-7.759114837646485,0.05748046875,7.615263977050781,47.46416218696146
8792,-7.624245300292969,-0.03442840576171875,4.9600854492187505,57.409545058228055
8859,3.3162039184570316,13.59173583984375,5.897436218261719,50.524284372296925
8927,6.1840901184082036,30.362860107421877,24.442671203613283,49.17851966677584
8992,1.8649717712402345,10.678493957519532,4.54769302368164,60.05462797985233
9059,1.5968792724609375,-3.070564727783203,-1.3952485656738283,45.18013555046075
9129,5.166356506347657,-10.383008422851564,-4.707710266113281,36.87350569558027
9192,3.2883618164062502,-7.2423893737792975,-2.9855415344238283,44.84271360086347
9259,14.982344055175782,16.030614166259767,2.595153350830078,47.505546759890095
9327,20.71212890625,34.0716975402832,13.035193176269532,50.055965835366024
9393,-7.692503356933594,11.03714813232422,2.6993367004394533,50.398699881947316
9459,-6.860832824707032,2.2397923278808594,4.159400482177735,47.09931078018124
9532,-9.856253814697267,-0.6237528991699219,6.062093811035156,50.998808261253934
9592,-1.7128880310058594,8.925489349365234,8.45726303100586,52.57320914498143
9659,2.6122178649902343,35.943554992675786,17.995578002929687,48.09458704172688
9729,1.5395484924316407,8.631051635742187,2.281256103515625,64.2171890098391
9792,2.800675964355469,-4.726870422363281,-2.0175045776367186,60.08385952149115
9859,3.687132568359375,-10.188263397216797,-3.5591487121582035,43.29987387278803
9927,6.505022735595704,-6.207890625,-0.980760498046875,65.60148590053193
9993,15.722704467773438,12.599000244140626,1.9101777648925782,60.519173649707945
10059,22.936802673339844,36.75801132202149,10.850186920166017,55.72460337355666
10133,-6.729705505371094,12.313094787597658,6.821165313720703,51.10660403647
10193,-8.798104248046876,3.607947235107422,1.6450790405273439,55.53470372213121
10259,-9.755064239501953,-0.5321434020996094,6.072122955322266,63.75828523120192
10331,0.07454498291015625,10.223739624023438,8.83612518310547,57.57640440465374
10393,2.7861561584472656,31.182405853271487,21.467308502197266,47.79250071817572
10459,3.0831385803222657,10.395432586669923,4.495751037597657,54.10606855329341
10532,5.818699951171875,-3.5847454833984376,-4.1763153076171875,53.10461768486202
10592,3.0540989685058597,-9.076824645996094,-2.0914508056640626,46.28378711236398
10659,4.708458709716797,-7.324568481445313,-1.5355068969726564,50.75882588749381
10729,21.862037658691406,19.639758911132812,0.2293231201171875,47.68578908868907
10792,21.337229003906252,33.44539993286133,5.889951782226563,50.37446419248941
10859,-5.834267578125,12.063563690185548,5.2575169372558594,43.57629971956762
10929,-7.800428924560547,2.5535398864746095,8.313861236572267,51.34642401511904
10992,-6.007756805419922,0.52929931640625,5.546565856933594,64.90809789308655
11059,-1.1654763793945313,4.616400146484375,3.8043388366699222,63.49686174340811
11127,12.523257751464845,37.66497528076172,19.370618591308595,60.766593731094844
11192,5.903274078369141,13.532908172607423,11.285481719970704,61.910640573368056
11259,3.130140838623047,-2.4102877807617187,-5.338348846435547,54.45790956440054
11330,3.698957977294922,-9.498198394775391,-6.38751708984375,48.261525798222294
11392,2.180365905761719,-6.539301452636719,-3.4841546630859375,51.1334495014104
11459,14.31592987060547,2.6182054138183597,1.8573376464843752,59.138090857108054
11528,27.786268157958986,39.78741165161133,19.503392486572267,59.636400476698306
11592,-1.04183349609375,15.51104461669922,15.11781234741211,63.69413472111587
11659,-8.627159729003907,4.362827453613281,0.4255650329589844,50.291604848105834
11729,-6.759343872070313,1.1644285583496095,2.449805603027344,51.60009082537524
11792,-2.9370423889160158,4.630919952392579,4.747228088378907,61.56506143751572
11859,-6.616241455078125,20.428618469238284,6.082601165771485,65.79985839317355
11927,1.8806890869140627,20.08029281616211,17.718055114746093,63.45505665454112
11992,-1.2377760314941406,5.2753298950195315,3.45601318359375,58.20075949299795
12059,6.430178375244141,-6.48616195678711,-5.00603988647461,41.08666482553972
12130,2.2611978149414065,-8.688681793212892,-7.159012756347656,54.26312774340519
12192,10.802885284423828,-2.0079244995117187,4.784500579833985,49.10901752589279
12259,28.897557220458985,36.88614486694336,11.025023345947266,46.29073043426928
12327,-1.5049703979492188,17.521962890625,30.011690368652346,56.785966724550576
12393,-9.116641845703125,7.866741027832032,0.93645263671875,51.69383435684405
12459,-8.246651000976563,1.5509248352050782,6.039939880371094,45.20666906472944
12530,-6.694828033447266,2.908302154541016,7.285350036621094,54.781478706432736
12592,0.024998016357421875,11.079659729003907,5.749693450927735,63.012954855743956
12659,2.060614929199219,25.122108306884765,19.410286102294922,62.537841881228
12732,-1.8446141052246094,4.578528900146485,-0.45026367187500005,59.10741765917318
12792,2.5569827270507814,-6.815028076171876,-4.148922271728516,56.426029975418274
12859,3.9451959228515627,-11.103011169433595,-3.125051422119141,48.42952296559996
12932,14.75421844482422,-2.249073028564453,0.6294410705566407,53.15355183980447
12993,37.37413009643555,33.43267639160156,12.284354553222657,45.62114350588686
13059,0.97477294921875,22.69266036987305,28.485763549804688,62.24041257157003
13132,-10.086774444580078,8.041876831054688,0.276624755859375,40.946807133711545
13192,-9.302106170654298,-0.35221755981445313,8.21057601928711,55.13698255177519
13259,-7.78426254272461,3.272644500732422,1.1105406188964844,62.75836337596789
13330,2.502196655273438,17.790504455566406,10.866053924560548,68.89454043100035
13392,-0.3950285339355469,27.57565612792969,21.752764892578128,49.886347511492495
13459,-0.010029144287109375,8.808283081054688,-0.74964111328125,53.122556578398665
13530,4.714146881103516,-4.887037353515625,-4.614154815673828,49.34877031376711
13593,4.312532043457032,-8.789721679687501,-3.6143838500976564,39.160326101885694
13659,9.320218505859376,-6.478228454589844,-1.9223025512695313,49.35764139014463
13727,23.168221435546876,22.363045806884767,5.626200256347657,51.07888025182799
13792,12.662767639160156,29.005632476806642,14.388079833984376,53.269847690628886
13859,-8.433013458251953,10.93895233154297,0.9081614685058594,50.8531198909826
13930,-7.4009097290039065,2.6029371643066406,2.577939147949219,44.57700272218108
13992,-7.914192352294922,1.3395643615722657,3.403921508789063,58.44147757459143
14059,2.0028350830078128,14.273268585205079,6.785988464355469,64.21454694757814
14128,-0.6807843017578126,32.072005920410156,17.995278625488282,60.06655977803267
14194,0.4243675231933594,12.356205139160156,6.137985992431641,53.93876911176705
14259,4.345014495849609,-4.305796051025391,-3.703448638916016,47.80641291626942
14329,2.2710772705078126,-10.706036682128907,-6.849007415771485,45.67579180583628
14393,8.229436798095703,-6.124663696289063,-4.640500030517578,45.420282818792984
14459,26.17546783447266,17.829722900390625,10.249635772705078,44.31958501037113
14527,19.359242248535157,32.671509246826176,15.361954650878907,48.20056889607293
14593,-3.813918914794922,13.325738983154297,6.545738067626954,46.22783725427208
14659,-7.338489532470703,3.9832168579101563,3.2696507263183596,60.46786937166374
14730,-7.49401611328125,0.6668632507324219,3.510499877929688,61.15851386782475
14792,-1.1888278198242188,7.081773376464844,2.3920257568359378,66.81785393035929
14859,-7.778724060058594,30.578711242675784,18.944155426025393,63.68584186491451
14930,0.629740447998047,16.932488708496095,8.214318237304688,52.202127247064816
14993,4.7116021728515625,-0.7662565612792969,-2.701731719970703,40.989896394011765
15059,4.996310119628906,-8.82609603881836,-4.692591705322266,50.01231648214799
15129,3.473676452636719,-6.743177490234375,-4.58212142944336,38.538198458567635
15192,15.971038055419923,6.7229695129394536,2.605332183837891,50.442770660653835
15259,20.72350524902344,36.47884185791016,15.401023406982423,43.13571968439817
15335,-2.181563415527344,15.527061309814455,10.962752838134767,61.45867070388113
15392,-8.595725097656251,3.566034393310547,2.072590026855469,52.46769314946471
15459,-7.644453277587891,-1.6952247619628906,2.416275329589844,54.54796094381543
15529,-4.772375793457032,0.3143463134765625,2.3126907348632812,61.8036246391146
15592,-3.869303741455078,22.043759765625,14.580729217529298,62.508708976551986
15659,11.27530288696289,27.99717956542969,32.29219802856446,59.16960593015615
15731,4.7116021728515625,1.8290464782714844,0.22378463745117189,55.33039569684828
15792,5.5869818115234375,-9.975106658935548,-6.56998764038086,43.286853369831505
15859,3.5259178161621096,-10.308014373779297,-5.40840316772461,40.27268042466619
15930,12.185410308837891,-2.8133995056152346,-5.013823699951172,40.62544381346464
15993,29.96843032836914,35.94190841674805,22.992337188720704,42.030600975959615
16059,4.142485656738281,24.015160217285157,16.30274826049805,51.88486937476611
16130,-8.946445770263672,8.716972961425782,-1.1240126037597657,47.295616312688026
16192,-8.121361541748048,1.631906433105469,1.1443702697753906,47.92664788851721
16259,-7.367080078125,2.3249652099609377,1.3606704711914064,65.53312610371006
16329,4.4351271057128905,17.619859313964845,9.26528274536133,60.5707891520252
16393,-0.4667294311523438,25.755890350341797,17.451908569335938,54.09970298699694
16459,-0.6864724731445313,10.210267639160156,2.311942291259766,40.254697190610564
16529,4.059857482910156,-4.556524658203125,-5.613027648925781,33.31427296520743
16592,4.818629608154297,-8.982969818115235,-2.6370661926269534,40.16824493667488
16659,9.305998077392578,-5.063670043945312,-1.753154296875,59.447900241199186
16731,17.50175491333008,19.37810302734375,12.290192413330079,49.71354719847167
16792,22.74160858154297,28.27021179199219,28.245662841796875,57.969765283875944
16859,-6.962022399902344,11.555370483398438,2.1706361389160156,63.62723494076154
16930,-7.282505950927734,-1.7714163208007814,1.936223602294922,50.82645368539793
16992,-5.745352478027344,1.2307406616210939,1.3382171630859376,66.40942418931775
17059,1.7321978759765626,12.261152801513672,3.3412019348144533,62.3474348290923
17128,-3.4757720947265627,29.054430999755862,20.372335510253908,56.2075841003481
17192,-3.643423461914063,14.385684814453125,1.257534942626953,60.21679155047035
17259,2.4700135803222656,2.9449758911132813,1.826052703857422,44.8521019101124
17329,5.645659790039063,-8.30637680053711,-2.0680993652343753,41.30976691605617
17393,2.1794677734375,-7.899672546386719,-3.2744407653808594,55.30725913296586
17459,13.842015380859376,0.2496807861328125,-2.117047576904297,48.741743977377716
17527,34.86624526977539,40.76218460083008,19.391724700927735,47.71411081820381
17593,0.38709503173828125,17.00703369140625,7.411687316894532,47.58737837086936
17659,-11.461964721679688,6.379583587646485,3.6338433837890625,62.24959378645366
17730,-8.885372772216797,4.771327972412109,0.2847079467773438,63.41050117654203
17792,2.8732749938964846,14.242732086181642,6.556964721679688,53.29027503226498
17859,-6.680008850097656,27.10772918701172,9.994715881347657,60.15678651910623
17930,0.5418731689453126,12.976066131591798,5.045707397460938,56.05685291423028
17992,1.1921209716796877,-0.7858657836914062,-1.4130615234375001,46.03415045412929
18059,2.8921357727050783,-9.027427368164062,-8.584348754882813,40.808068043343624
18130,4.663252716064453,-7.0168084716796875,-0.14025833129882814,45.19591757310607
18193,16.53955581665039,1.4687457275390625,3.041225738525391,52.88906208195999
18259,34.57300506591797,39.37412109375,13.794713745117189,51.973384601964874
18337,-2.893932037353516,15.840509490966797,3.732787628173828,44.6314613672635
18392,-7.784711608886719,6.878795471191407,4.298461303710938,54.68172986752876
18459,-9.948162689208985,1.7989590454101563,0.7768844604492188,58.16283732799438
18531,-1.9248472595214845,10.33301239013672,2.894979858398438,55.58020592920578
18593,1.028660888671875,23.340064086914065,13.35507797241211,51.487445176150466
18659,5.054539031982422,18.21786575317383,11.270363159179688,55.24059721983505
18729,0.27617568969726564,2.4758514404296874,-2.5837770080566407,41.989043994567325
18793,4.9160769653320315,-5.971981201171875,-5.1379156494140625,33.67728546086977
18859,2.9957203674316406,-7.003635864257813,-1.5081138610839844,39.443345919707824
18930,11.565549316406251,-2.4867787170410156,-5.515131225585938,41.45972902802181
18993,21.76144683837891,30.50521408081055,10.726544036865235,45.972013888491155
19059,3.4440380859375,26.351052703857423,22.21365646362305,59.322966622464776
19131,-9.027726745605468,8.377478942871095,-1.081351318359375,56.610768843348104
19193,-7.964188385009766,0.24459136962890626,0.7123686218261719,59.818765696150535
19259,-5.677244110107422,1.353036346435547,1.8796412658691408,48.462009871147735
19330,1.9020945739746096,12.043505401611329,6.402036895751953,59.553533639579214
19393,0.8078700256347656,33.802856597900394,17.338743896484377,62.2912998647849
19459,-0.49576904296875,17.35820343017578,5.015021209716797,55.53662183922932
19529,5.059329071044922,-3.8116735839843754,-1.6257691955566407,51.762909885830865
19592,2.9424311828613283,-11.619437255859376,-3.084485778808594,41.43982292223977
19659,3.8276902770996095,-8.29724578857422,-1.332828369140625,46.87983528547943
19729,16.29945510864258,3.441194000244141,-1.9862196350097656,42.68952202394499
19792,38.98283477783203,44.42327133178711,6.558162231445313,52.901526343372545
19859,3.1924113464355472,18.41425735473633,9.969418487548829,54.418537458878866
19928,-8.611891479492188,5.159919891357422,1.7503102111816407,53.15966149354696
19993,-11.03759719848633,0.42421783447265626,2.861150207519531,58.1157902709718
20059,-2.682272186279297,11.914473724365235,3.2602203369140628,50.97156622243383
20127,1.6289126586914062,28.918064575195313,10.398875427246095,51.54411799307532
20193,4.498146057128906,23.396197357177737,7.569459228515625,47.242594808205496
20259,2.2017713928222657,-0.17274078369140625,-2.3382875061035158,48.39333467984343
20328,4.077969818115235,-11.72885971069336,-4.345463562011719,43.482074766856265
20393,3.604205017089844,-8.443641357421875,-4.48153060913086,51.021969403701455
20459,12.639266510009767,1.129401397705078,-3.3916470336914064,57.82351492147189
20527,40.94076324462891,47.20463745117188,8.220754852294922,54.81408227576951
20593,2.3559507751464843,22.34164031982422,12.411140899658204,45.78581911401869
20659,-9.851463775634766,6.630012817382813,3.682192840576172,61.125812085153804
20732,-10.475516052246094,2.132465515136719,2.761307830810547,55.39248025289403
20793,-5.861660614013672,4.301006011962891,2.092348937988281,54.657485756428905
20859,2.8445347595214847,18.111287384033204,8.61922622680664,59.47741442340576
20926,-0.3180885314941406,30.24849792480469,17.493971099853518,64.52826574948273
20993,-0.8755293273925782,9.293424224853515,-2.120640106201172,54.94970912436643
21059,3.8791831970214847,-4.967420196533204,-4.045637054443359,51.553542592288835
21130,3.019969940185547,-7.4130345153808594,-3.3651521301269534,45.42539121344277
21193,7.617209930419922,-4.941673736572266,-0.32482452392578126,48.11400716944095
21259,19.42929656982422,22.54222320556641,5.073399810791016,52.550504756224086
21327,16.912430419921876,37.35856246948242,19.410735168457034,50.64817256707964
21393,-8.817264404296875,11.33562744140625,4.070335693359375,50.764110406595215
21459,-9.898016967773438,-1.1265573120117187,3.1545401000976563,57.1302155432737
21531,-7.466323699951173,1.713636474609375,2.9861402893066407,54.587511284633834
21593,1.2018507385253907,15.605947265625002,8.653355255126954,48.09909702458489
21659,0.6728507995605469,29.00174057006836,17.15402801513672,60.25549575377747
21732,1.2912149047851562,8.830137634277344,1.969753875732422,52.81769452064906
21793,4.443809051513672,-2.453547821044922,-4.074676666259766,50.745494941660205
21859,4.58691146850586,-8.21446792602539,-4.164789276123047,55.01961164393353
21932,6.686295776367188,-5.279521179199219,-2.0442988586425783,48.75414346002842
21993,13.861774291992187,12.525054016113282,3.676055603027344,52.09276355096905
22059,24.524700622558594,38.40413818359375,10.208321685791017,57.57373250513069
22133,-3.810326385498047,12.381951599121095,2.5632696533203125,55.96774075792665
22193,-8.393196258544922,1.6814533996582033,1.229842529296875,55.494508208405904
22259,-8.710985412597656,-0.41463775634765626,3.1126272583007815,51.72760509487189
22327,-3.667822723388672,7.441625061035157,1.6128959655761719,67.23959538876281
22393,-2.9099487304687504,27.79554885864258,12.68731658935547,57.46899520058876
22459,-0.32677047729492187,21.044737243652346,8.09082504272461,62.35907279317402
22528,2.7794201660156252,3.2224987792968753,-2.8698321533203126,50.66366929772168
22593,4.032165069580079,-8.310119018554689,-2.012864227294922,50.00455769968617
22659,1.7299525451660158,-10.096504211425781,-2.545606384277344,45.39903732681851
22729,11.936028900146486,-1.9414627075195314,-0.7937992858886719,43.899984226073336
22792,34.25776062011719,44.181673736572264,6.007607116699219,47.43086238752207
22859,2.887046356201172,29.834907989501954,13.425281982421875,48.156906236575026
22928,-8.016429748535156,6.174959106445312,4.377646636962891,57.37406555610796
22993,-7.818690948486329,-1.9910096740722658,1.9797830200195314,59.41742928395097
23059,-7.822433166503907,0.6319857788085937,1.513802032470703,64.18815344137202
23128,-0.499361572265625,13.764326934814454,11.46540756225586,65.65176149352159
23193,-0.1884580993652344,27.219995727539064,18.9827751159668,58.58680334763964
23259,0.10283615112304688,11.105106811523438,1.0599458312988281,50.75134368185283
23328,4.604125671386719,-3.3781750488281252,-2.483485565185547,39.212701855098125
23393,3.996838531494141,-8.611442413330078,-3.11113037109375,42.948848870000305
23459,5.068609771728516,-5.170996856689453,-3.686833190917969,47.50670357260234
23528,17.314644012451172,18.277142486572266,5.83232162475586,47.545088726579536
23593,16.468902740478516,29.01985290527344,16.95868423461914,51.23453082752335
23659,-1.4435980224609375,16.7507666015625,-0.1974394226074219,62.66600196567639
23726,-7.299720153808594,0.15881973266601562,2.4472608947753907,62.28649005804033
23793,-7.629035339355469,-1.9422111511230469,2.808908843994141,58.72399293062311
23859,-3.449875946044922,5.8965380859375,3.2428564453125,50.48294164949289
23926,0.7289840698242188,22.911056213378906,10.653046875000001,50.36720694235635
23993,2.692900085449219,20.72350524902344,13.896651763916017,52.852579251870246
24059,2.9232710266113284,8.99853744506836,2.9395870971679687,49.47379799360178
24128,4.320465545654297,-5.5694682312011725,-4.291126556396485,48.813846567705724
24193,1.5992742919921876,-7.958350524902344,-6.611002349853516,54.587616997034914
24259,9.690398712158204,-2.7126589965820314,-1.4708413696289062,56.12124499940247
24326,28.973599090576172,37.2759342956543,13.696368255615235,61.50258019726435
24393,-1.0996133422851564,22.23386444091797,13.63379837036133,54.47683519831607
24459,-6.8443670654296875,8.233777770996094,-4.472848663330078,52.98189124304514
24526,-7.803273010253907,-2.932551727294922,4.788691864013672,61.13751218022395
24593,-8.262667694091798,0.7309300231933594,0.9135502624511719,60.97304520596103
24659,-2.31119384765625,9.543404388427735,12.200528869628906,57.65523269012665
24726,2.0719912719726565,23.231988830566408,19.25880111694336,65.62664295075857
24793,3.438948669433594,15.331268463134766,1.6362474060058594,46.91647210000767
24859,8.819659423828126,1.810485076904297,-0.5502557373046876,56.06978646609964
24939,9.881700897216797,-3.5209780883789064,-3.3449441528320314,61.42088359389251
24993,5.690117340087891,-4.2396336364746094,9.380093994140626,63.47884777026312
25059,6.5484324645996095,-0.8243357849121095,15.542030181884767,58.26616360704815
25126,-1.3915063476562501,6.3512924194335945,29.226722717285156,53.148716815159034
25193,-4.329746246337891,10.842403106689453,7.224576416015625,60.24230270152696
25259,-8.324189758300781,4.950205993652344,4.647685089111328,45.20902558987522
25328,-9.974507904052734,6.898404693603516,0.7536827087402345,54.01453962610582
25393,-16.068186035156252,8.095315704345703,12.002640380859376,50.32751687796175
25459,-14.905404052734376,-0.204774169921875,19.884200592041015,61.23115328818407
25526,-2.5372238159179688,-4.940326538085937,27.05458969116211,66.43382788932995
25593,6.148913269042969,-2.7390042114257813,12.574451293945312,55.42263841067347
25659,17.46343460083008,-5.217400360107422,8.13872543334961,56.11146343253581
25726,13.936319274902344,-3.4194891357421877,-7.788154449462891,54.48400196712292
25792,11.941417694091797,-2.0977377319335937,1.5485298156738283,56.703367855606416
25859,17.72104888916016,12.434342651367189,27.5473649597168,45.28428165537636
25926,-2.4757017517089843,15.813864898681642,19.617305603027344,60.495823669515396
25993,-6.786437530517579,7.205865325927735,-1.0487191772460938,60.58501184305612
26059,-9.093140716552735,4.0320153808593755,0.2974314880371094,62.29026964025075
26129,-8.499624938964844,7.458390197753906,-0.22423370361328127,67.50033728611866
26193,-2.529140625,12.31279541015625,15.386204223632813,58.25581890539186
26259,6.620582427978516,23.96980453491211,22.402563629150393,50.342794371949935
26328,4.273912353515625,10.298733673095704,6.107898559570313,55.70214760138683
26393,3.981420593261719,-3.0672715759277347,-2.4441174316406253,49.67786585427908
26459,4.822521514892578,-6.696773986816407,-7.1296737670898445,40.769679521979185
26528,8.622669067382812,-2.0718415832519534,-3.66677490234375,43.73408581295595
26593,19.432889099121095,14.934443664550782,10.993289337158204,43.35357590149175
26659,21.597537689208984,25.54378143310547,17.22258544921875,58.1240861370254
26728,-1.5187417602539064,12.786859588623047,4.606221313476563,43.75572173918037
26793,-6.572083282470704,2.8481272888183593,3.4452355957031253,53.520242130517275
26859,-9.133406982421876,1.0521620178222657,-0.44203079223632813,53.143665826464414
26926,-2.7500811767578126,5.526657257080078,0.4831951904296875,50.301056486110454
26993,-3.967200164794922,21.199814758300782,16.400345306396485,46.23879593821514
27059,5.5200709533691406,17.815801849365236,17.019757232666016,44.77511943969573
27129,3.9966888427734375,3.4286201477050784,1.1659254455566408,49.69070949296216
27193,5.649701385498047,-5.2417996215820315,-4.415368194580078,38.73553093513619
27259,3.6916232299804688,-4.877756652832032,-9.030271453857422,42.75794914631003
27328,14.956447906494141,2.787802734375,0.5966592407226563,45.1469382103857
27393,37.510945587158204,28.86761947631836,16.122972106933595,48.63857961883973
27459,6.739435272216797,19.430494079589845,13.13144302368164,52.22898472609422
27528,-5.779930572509766,7.368726654052735,4.180506591796875,59.74570178087768
27593,-9.687255249023439,3.3663496398925785,3.2789314270019534,52.586301002862626
27659,-7.761809234619141,1.2328363037109376,1.6176860046386718,58.48669962742817
27726,-6.769223327636719,3.7517980957031254,5.684728546142578,48.26864888464613
27793,16.42115203857422,32.62944671630859,42.093067016601566,64.10108157736556
27859,7.236850891113281,8.74795852661133,6.168372802734376,56.08421191220769
27929,6.605763244628907,-3.0373338317871097,-4.973407745361328,41.054761211218214
27993,4.543651428222656,-8.11627212524414,-8.338859252929687,43.729856059669615
28059,8.891360321044923,-5.957611083984375,-5.256768493652344,49.91341281395776
28126,24.482189025878906,24.820635223388674,8.907975769042968,43.97192379017187
28193,12.566817169189454,26.125022735595703,22.487586822509765,58.46284523431762
28259,-4.652175750732422,12.030332794189453,2.003134460449219,47.586621391013324
28329,-8.57506805419922,2.472558288574219,4.874014434814454,49.485205479322836
28393,-7.867938537597657,1.9983444213867188,0.2540217590332031,49.88054811435252
28459,-0.7905061340332031,5.421276397705078,2.1847068786621096,57.17523217257393
28526,-4.6271777343750005,25.468937072753906,12.090357971191407,55.927106890110935
28593,8.12480438232422,25.29469940185547,13.494138793945313,54.47092882283633
28659,4.609215087890625,0.5629792785644532,-1.3617182922363282,49.139674171814825
28728,5.672454071044922,-10.12329849243164,-6.089486846923829,43.188977146274866
28792,3.2445030212402344,-8.463400268554688,-4.994364166259766,49.94559093335838
28859,15.889457702636719,1.060843963623047,1.5299684143066408,44.601458174917504
28926,31.136750793457033,35.662439575195314,16.735198974609375,38.55700830835437
28993,1.485959930419922,17.520166625976564,14.723831634521485,53.58144324512175
29059,-7.384443969726563,8.185278625488282,-0.425115966796875,45.28736777724652
29126,-6.611152038574219,5.856870574951172,2.2875430297851564,44.31685344686012
29193,-2.6584716796875,5.791755981445313,1.5648458862304688,55.78200109998725
29259,2.4795936584472655,13.095517730712892,13.222304077148438,61.32842841016233
29326,-3.253334655761719,24.489523773193362,12.799134063720704,48.89099918845205
29393,-1.5021263122558595,8.905880126953125,1.6887881469726564,36.87350569558027
29459,3.4549653625488284,-3.9739361572265626,-3.326532440185547,32.21414237842338
29528,2.9692254638671876,-7.131619720458985,-2.6494903564453125,46.87635961046467
29593,7.476203155517578,-3.313659210205078,-4.4917094421386725,55.193264943893
29659,23.89166702270508,27.88176956176758,11.624376983642579,45.839691614187544
29726,13.454321594238282,27.706334381103517,14.692995758056641,56.01768916504129
29793,-7.2688842773437505,12.179273071289064,2.3318508911132816,47.85799473380155
29859,-8.039781188964843,1.101708984375,1.5241305541992187,55.22787099475684
29933,-6.433621215820313,2.9759614562988284,0.2796185302734375,59.34259523567385
29993,4.4950025939941405,17.59426254272461,10.980565795898437,55.597522615507124
30059,4.156855773925781,24.864494018554687,15.610437927246094,54.0026852235505
30129,-5.848937072753906,8.127199401855469,3.266507263183594,49.58797928282741
30193,0.3034190368652344,0.4441264343261719,-4.604874114990235,43.19106059309776
30259,6.3759910583496096,-5.765410766601563,-2.322869567871094,41.29818743848935
30328,4.993316345214844,-4.960235137939454,-2.812651062011719,50.188377539661445
30393,14.786251831054688,1.841620330810547,-1.3970448303222658,44.48968980894368
30459,31.621442871093752,38.25175506591797,10.508447570800781,43.50344948249062
30526,3.36979248046875,19.173628234863283,18.304385833740234,55.122760528578674
30593,-6.9130741882324225,6.732100524902344,2.817441101074219,37.7662855342015
30659,-8.809929656982423,0.6971003723144532,5.028044128417969,52.875352510618725
30728,-5.3280203247070315,5.641767883300782,0.03263214111328125,59.11280685808185
30793,-1.325493621826172,24.856111450195314,11.47648452758789,50.497721699720216
30859,4.6319677734375,22.603595581054687,13.729898529052734,56.240963720278856
30928,3.262914733886719,3.2597712707519535,-0.03308120727539063,42.537740196788796
30993,3.87274658203125,-6.00715805053711,-5.57800048828125,32.62213705476417
31059,3.173999633789063,-8.156239013671875,-3.217409362792969,35.729877081982046
31129,10.944939880371095,-4.610113220214844,-3.5560052490234377,49.37056271571187
31193,25.72535385131836,28.229346771240238,14.356495513916016,51.565461227683485
31259,16.70526123046875,29.438681945800784,19.08441375732422,52.98110431135712
31328,-5.34807861328125,12.892240447998047,0.07903564453125,45.84218112117405
31393,-7.243736572265625,1.9730470275878906,3.5655853271484377,54.03393371505039
31459,-8.212222595214843,2.419867858886719,-0.14639556884765625,54.8085170082821
31529,6.085594940185548,19.793040161132815,3.393592987060547,48.985332161032545
31593,10.112969970703125,24.6733415222168,16.056959381103518,56.74593871000033
31659,1.8158738708496094,12.959600372314453,-0.041164398193359375,51.11353262311908
31728,-0.17184265136718752,-0.30027557373046876,-0.91729248046875,41.364351704583825
31792,5.398673400878907,-7.067253570556641,-3.3654515075683595,35.75072325713813
31859,3.230432281494141,-7.112459564208985,-6.922205200195313,37.39888655084543
31928,12.6025927734375,2.822081451416016,0.03113525390625,47.69251746591965
31992,30.35253158569336,33.886682281494146,18.463804321289064,38.38408278494187
32059,4.608167266845704,22.77558792114258,15.34054916381836,52.59615378080622
32128,-7.743846588134766,7.1525761413574225,4.973407745361328,39.87129767659897
32192,-9.265133056640625,1.4534774780273438,2.368524627685547,49.26136571067449
32259,-6.07616455078125,1.907633056640625,-1.7756076049804688,47.12464497828986
32328,0.33784744262695315,12.57190658569336,9.126072235107422,44.13132050434872
32393,13.815221099853517,24.557332763671877,30.030850524902345,50.256990105679336
32459,2.6469456481933595,11.459120635986329,7.447762298583985,56.88064587623203
32526,4.788691864013672,-1.3178594970703126,-4.604874114990235,49.41814438615963
32593,1.6245716857910157,-10.624306640625,-7.417076110839844,41.828709639889084
32659,5.911806335449219,-5.486690368652344,-5.119204559326172,38.6646456597174
32726,24.491769104003907,24.176374969482424,12.878169708251955,59.68551122766591
32793,8.126600646972657,23.348746032714846,21.789139251708985,57.285412593543974
32859,-3.6152819824218754,13.526471557617189,1.7742604064941407,52.76119288836999
32926,-7.229516143798828,1.2855267333984375,1.3066328430175782,43.5684775135924
32993,-7.110064544677734,0.7015910339355469,0.08652008056640625,52.23311592767302
33059,-2.2863455200195313,9.210346984863282,4.468208312988281,48.474924553124865
33126,-2.115999755859375,25.530608825683593,15.390545196533203,51.40127633121608
33193,-3.3808694458007813,15.925083618164063,8.958420867919923,50.38349885507603
33259,3.3578173828125,5.040019226074219,-0.5194198608398438,48.2827956128369
33328,4.6990283203125,-7.331454162597657,-5.139113159179688,32.90479813330673
33393,3.437751159667969,-7.270680541992188,-4.5457470703125,52.37216889008002
33459,11.854448547363281,-2.7488836669921874,-3.7281472778320315,46.572949359800724
33526,40.50322311401367,33.87800033569336,6.803651733398437,44.35732912484542
33593,8.184829559326172,21.70172103881836,12.819791107177736,51.147077057188525
33659,-4.820874938964844,11.039842529296875,3.723806304931641,41.590556035134874
33729,-6.379882965087891,2.042652282714844,7.979007568359376,48.84075662346949
33793,-5.474565582275391,2.1311183166503906,1.3187576293945313,49.62648671928429
33859,3.048410797119141,13.35552703857422,3.041525115966797,53.38097753706539
33926,10.326426086425782,28.933033447265625,12.63372802734375,48.81338999234586
33993,-7.528893585205078,8.05774383544922,-2.1799168395996094,49.94325952873929
34059,1.791324920654297,-1.545835418701172,-5.712870025634766,40.054808099794016
34128,4.277355194091797,-6.102509765625,0.348475341796875,34.08748606184244
34193,1.8181192016601564,-4.205803985595703,-1.7127383422851563,39.289076902439525
34259,11.480526123046875,4.113595733642578,-7.079827423095703,48.619523749214515
34326,33.1325505065918,31.919622802734377,15.792160034179688,54.658823002655446
34393,5.536087646484376,21.47509231567383,14.835948486328126,48.53856329438984
34459,-4.148024139404297,6.187982025146485,7.066654815673829,46.779991004686885
34528,-9.125623168945314,-1.93278076171875,4.377796325683594,48.06810600074521
34593,-8.035440216064453,0.44203079223632813,0.2633024597167969,69.97304498623825
34659,7.10841796875,23.286924591064455,8.61638214111328,58.82185166189256
34726,7.717501373291016,23.486759033203125,14.23360107421875,49.31218790366376
34792,-0.019309844970703125,10.725196838378906,-2.288141784667969,49.12992153036452
34859,3.8381684875488284,-4.378993835449219,-4.001179504394531,37.75027600098844
34941,2.558180236816406,-8.688232727050782,-2.9883856201171874,34.56973013635818
34993,7.921527099609375,-6.2297451782226565,-1.8555413818359376,39.59947215708499
35059,21.915925598144533,24.26094909667969,8.322094116210938,42.7948442902921
35126,9.662706298828125,24.552991790771486,20.767364044189453,63.89680905538832
35193,-3.1199620056152346,14.293177185058594,2.96742919921875,46.72181012747471
35259,-8.837023315429688,1.136436767578125,2.705324249267578,46.046687645201786
35328,-6.860832824707032,3.017275543212891,-0.34787658691406254,56.033728315612706
35393,3.0549971008300782,16.92904586791992,10.195149078369141,47.18377112354902
35459,-1.2099339294433595,25.352329559326172,11.914773101806642,52.55356943043587
35528,-2.1775218200683595,10.191406860351563,3.191363525390625,46.69000576707375
35593,2.652035064697266,-1.97110107421875,-1.7107923889160157,44.93471992809347
35659,3.8229002380371098,-7.514074401855469,-3.7110827636718753,44.819153651083745
35728,4.440964965820313,-5.194947052001953,-3.933669891357422,29.425041061680805
35793,17.347276153564454,12.777429199218751,-1.5310162353515626,42.695596400388204
35859,21.927601318359375,31.52549240112305,18.022372283935546,51.98547125064507
35929,-1.670526123046875,13.37947723388672,5.832770690917969,45.9250984790068
35993,-11.253448333740234,-0.7080276489257813,2.732268218994141,37.13994267660644
36059,-7.884254608154297,0.279019775390625,0.46643005371093754,49.58430086536125
36129,-1.2817845153808594,9.876162414550782,3.6227664184570316,53.21428572992161
36193,-7.147486724853516,25.81636459350586,15.707585906982423,45.69280251110929
36259,2.7021807861328124,18.717227325439453,9.822573852539064,57.40619242259514
36328,3.8576280212402345,0.23590942382812502,0.7349716186523438,42.19741661046302
36393,6.233637084960938,-8.488847351074218,-3.3991314697265627,33.754807146185726
36459,2.8794122314453126,-6.630910949707031,-7.960595855712891,38.649261915390056
36528,13.833932189941407,2.165247344970703,1.4575190734863281,47.51163584769493
36593,28.516749114990237,31.529983062744144,10.193951568603516,36.69688708056208
36659,3.9390586853027347,21.95424591064453,18.54463623046875,59.87123951975857
36729,-9.683662719726563,7.320826263427735,-2.875071258544922,44.77671012956648
36793,-9.015003204345703,0.9379495239257813,4.959935760498047,44.88649408577202
36859,-5.362748107910156,5.6761962890625,0.8949888610839845,48.22331563082315
36929,7.473508758544923,19.52360046386719,10.487341461181641,43.65113431627577
36993,3.943100280761719,24.575145721435547,16.86617660522461,46.657122913136526
37059,-1.640289001464844,7.870932312011719,1.3036390686035157,41.528385098922186
37129,3.848497009277344,-6.953490142822266,-3.8781353759765627,32.84430733844519
37193,3.791016540527344,-8.729995880126953,-4.884792022705079,49.34957752445104
37259,8.279881896972658,-5.044958953857422,-4.089645538330078,36.101276130759956
37326,30.586495056152344,17.495767364501955,4.8806007385253904,46.06660771660947
37393,16.304993591308595,24.574097900390626,19.85037094116211,58.014633956787435
37459,-2.614014129638672,13.899495849609377,5.368735656738282,46.74309888941477
37528,-7.874075775146485,2.0413050842285156,4.797523498535156,46.10084980850389
37593,-7.470215606689454,0.13965957641601562,-0.05403762817382813,60.011242349172534
37659,-1.6959732055664063,7.371121673583985,0.045205993652343755,46.6356901549458
37726,5.834866333007813,31.73011688232422,15.49143539428711,53.75138486014137
37792,2.304906921386719,16.628770294189454,9.847122802734376,44.431690757961164
37859,2.5460554504394532,2.373314666748047,-5.859115905761719,39.92774364255355
37928,4.084406433105469,-10.925630035400392,-3.2421080017089845,47.085908451503435
37993,2.601140899658203,-10.082882537841797,-0.5319937133789063,45.83482163526413
38059,14.888938293457032,4.658013610839844,-8.781488800048828,54.38774859535927
38126,34.16674987792969,37.07819549560547,1.2930111694335937,45.82211134320218
38193,5.168601837158203,20.773501281738284,12.330608367919922,45.71708831808688
38259,-6.291117553710937,7.670499114990235,0.42421783447265626,45.99708446224169
38326,-5.753435668945313,2.562371520996094,6.374943237304688,44.609278966980774
38393,-5.47740966796875,5.286406860351563,1.7642312622070313,56.458033379972186
38459,4.310436401367188,16.652271423339844,3.030897216796875,44.439041742213526
38526,2.902464294433594,28.073670501708985,15.094161529541017,45.649499787197534
38593,0.31329849243164065,10.731184387207032,3.9549256896972658,39.82361701633147
38659,4.071233825683594,-5.726491699218751,-4.764292602539062,44.495863808375674
38726,1.8449134826660156,-9.043144683837891,-7.961943054199219,48.57477237136458
38793,4.5937971496582035,-4.8906298828125,-2.6267376708984376,55.374639613788624
38859,18.155744934082033,16.30858612060547,9.289682006835937,52.66666714277883
38926,23.577620086669924,33.30948257446289,3.4099090576171878,48.77785858901626
38993,-2.6674530029296877,12.023147735595703,1.6226257324218751,45.952977678434394
39059,-6.700366516113282,4.0884480285644536,4.176464996337891,43.21432716647859
39128,-6.321953430175782,2.5638684082031253,4.127816162109375,43.97801012197206
39193,-1.977986755371094,6.227200469970703,-2.43573486328125,66.78131803313366
39259,-4.8014154052734375,23.540197906494143,3.5581008911132814,51.548832849215046
39326,4.548142089843751,21.304896240234378,18.312469024658203,59.137508221474526
39393,2.232307891845703,4.903203735351563,-0.16510665893554688,44.20087833187218
39459,4.320615234375,-6.356681213378907,-3.2585737609863283,38.24971461123694
39528,1.2072395324707033,-8.180488586425781,-3.902684326171875,46.59963713278355
39593,8.462352447509765,-3.8715490722656254,-1.5048207092285157,46.801904221305264
39659,22.690265350341797,30.04072998046875,9.585915985107423,57.38694166500707
39726,4.677323455810547,22.84324722290039,12.762909393310547,44.019000367605855
39793,-7.610923004150391,8.67041976928711,2.0706440734863283,53.91984266524012
39859,-7.204967193603516,4.287683715820313,2.8629464721679687,50.94994900944612
39937,-4.680915985107422,6.61264892578125,-0.000149688720703125,59.630763236517325
39993,1.8019528198242187,15.496375122070313,4.261338500976563,60.81581677146885
40059,7.0644094848632815,27.997329254150394,16.733103332519534,54.30594220686559
40128,-1.6998651123046875,13.514496459960938,0.8762777709960938,46.31179865096633
40193,3.689228210449219,-2.259551239013672,2.864293670654297,36.06811146918964
40259,5.169949035644532,-9.461225280761719,-4.459077301025391,42.23158342460344
40328,2.661615142822266,-7.524253234863282,-3.6848872375488284,39.54290761701127
40393,16.02312973022461,2.5333319091796875,-1.2457095336914064,51.13120754968672
40459,41.322319793701176,40.32599166870117,10.538385314941406,44.04970480747002
40526,2.7195446777343752,15.22169631958008,9.226812744140625,46.76501563293181
40593,-7.616461486816407,7.377558288574219,0.8271798706054688,55.905710126486845
40659,-6.422244873046876,4.611011352539062,2.4568409729003906,51.969550599944874
40728,-2.229164428710938,6.607409820556641,-0.0688568115234375,48.978139626296795
40792,3.243604888916016,16.648978271484374,11.720028076171875,57.19528498091259
40859,0.5394781494140626,22.972578277587893,11.848011932373048,58.00001139509952
40928,0.8879534912109376,8.110883331298828,2.339634704589844,48.3387351686722
40993,4.367018737792969,-5.955665130615235,-3.7390745544433597,47.763451780862454
41059,1.4940431213378906,-8.053851928710937,-4.770130462646485,51.905585927806314
41128,9.381890258789063,-3.2290850830078126,-4.230502624511719,52.00976283061184
41193,23.597079620361328,30.3160075378418,7.352410583496094,63.695318123245414
41259,13.599669342041016,24.595503387451174,16.720230102539062,50.6126771383821
41326,-2.057022399902344,12.96753387451172,0.3338058471679688,51.961789494772724
41393,-8.871002655029297,0.8234376525878907,3.3895513916015627,64.6741836549571
41459,-8.864266662597657,0.7288343811035156,2.505340118408203,53.72871516004152
41529,0.6179150390625,11.478729858398438,5.7432568359375,49.69914226247422
41593,-3.165018310546875,26.11903518676758,15.33381317138672,55.621750535369884
41660,3.946543121337891,16.685352630615235,10.636431427001954,61.727278312844035
41728,3.223546600341797,2.7641519165039066,-3.290607147216797,56.36540048679291
41793,4.760700073242187,-6.5309188842773445,-4.9301477050781255,59.93110277119982
41859,2.3640339660644534,-7.118147735595704,-2.8761190795898437,62.68676004668846
41928,13.715079345703126,6.918462982177735,0.12169692993164063,71.77308615904249
41993,26.480832824707033,32.15448440551758,11.427236938476563,52.54702723177206
42059,6.156547393798829,19.706071014404298,15.255975036621095,46.56366557176362
42128,-7.081324310302735,5.808820495605469,3.3922457885742188,47.29035130195791
42193,-8.519683227539064,-0.04326004028320313,5.3209849548339845,52.77609214304091
42259,-5.3878958129882815,3.94938720703125,0.9060658264160156,59.96759394511028
42329,0.3495231628417969,21.054317321777344,8.578810272216797,58.122707938356655
42393,5.8405545043945315,24.50539077758789,16.208594055175784,57.28851920175827
42459,0.07813751220703126,8.505762176513672,-0.7634124755859375,57.31775656915711
42528,2.904260559082031,-6.515351257324219,-1.3373190307617189,51.93244291235507
42593,4.648732910156251,-9.560768280029297,-4.628375244140625,56.13818574347293
42659,11.511811065673829,-1.2361294555664064,-3.6317477416992188,64.51835233364055
42726,19.666104125976563,29.740454406738284,4.4177632141113286,51.235739956126
42793,11.182196502685548,24.510779571533206,22.325923004150393,58.56255680543347
42859,-2.661914520263672,12.457843780517578,-0.7656578063964844,50.75130715167642
42928,-5.44387939453125,1.9339782714843752,4.400698699951172,52.933006661009905
42993,-7.243287506103516,-0.135318603515625,3.0160780334472657,50.23293623036605
43059,-3.6959642028808597,8.441246337890625,-0.2568658447265625,59.848085011049285
43126,-0.1471440124511719,33.75660278320313,19.40100540161133,59.960968805115684
43193,1.49209716796875,17.450711059570313,7.190896453857422,56.28498256311144
43259,3.989054718017578,1.6748670959472658,-0.4427792358398438,49.01327522936565
43328,5.009482727050782,-8.032895507812501,-5.3123030090332035,55.14347160572715
43392,4.308340759277344,-6.597979431152344,-5.302273864746094,68.5753843588153
43459,14.944023742675782,2.1776715087890626,-0.7165599060058594,55.92933613722244
43526,21.095332031250003,32.170950164794924,13.058245239257813,63.8183553803662
43593,4.404889984130859,22.078936614990237,23.214026184082034,47.96359213984196
43659,-4.966671752929687,7.573800201416016,5.104984130859375,37.832602328729486
43729,-8.860823822021485,2.933599548339844,5.647156677246094,51.96148539699125
43792,-8.429570617675783,3.7076399230957033,4.200714569091797,67.48727767681955
43859,3.021017761230469,15.098203125000001,6.449637908935547,53.59560405287191
43926,-1.1488609313964844,25.417743530273437,14.7485302734375,65.46696983329129
43993,-3.4319132995605472,9.180708618164063,1.0298583984375,56.016048294254816
44059,1.7823435974121096,0.9626481628417969,-3.5916311645507815,59.49646116061637
44128,7.286996612548829,-5.019362182617188,-2.648442535400391,54.478647356239016
44193,2.0251387023925784,-6.152805175781251,-1.4712904357910157,65.56244832282448
44259,11.563453674316406,11.557466125488283,-1.6242723083496096,70.6739613873529
44326,27.080785217285158,36.57554077148438,12.8133544921875,55.878579493863434
44393,0.29054580688476567,19.667601013183596,1.921853485107422,47.23225738862374
44459,-8.424032135009766,3.0576914978027347,4.13425277709961,59.42924315734895
44526,-8.640182647705078,1.8820362854003907,3.693269805908203,48.18911774612342
44593,-4.049828338623047,6.6945286560058594,5.361700286865235,58.01900840071251
44659,-1.50167724609375,25.743466186523438,16.925153961181643,57.81697225548129
44726,6.117778015136719,22.65104690551758,13.964909820556642,59.546298238674794
44793,3.1942076110839843,7.746540985107422,-1.8627264404296875,49.31076296950677
44859,6.374344482421876,-4.632716217041016,-2.6137147521972657,54.524718647831875
44934,2.8596533203125003,-7.870782623291016,-3.813769226074219,59.698420759944995
44993,9.757608947753907,-3.9339692687988284,-6.102509765625,60.194004629343745
45059,20.431013488769533,25.39573928833008,2.445165252685547,47.61439170150272
45126,14.247821502685548,29.1234375,22.36603958129883,53.79604615524194
45193,-3.6348912048339845,14.032718811035156,3.158881072998047,46.112133232356705
45259,-7.465575256347656,5.093458099365234,5.537434844970703,58.53194892869869
45328,-9.035061492919922,4.312981109619141,3.7161721801757817,57.869819911692005
45393,0.32362701416015627,9.072333984375,8.201594696044923,53.11491086375612
45459,4.466262359619141,31.816487274169923,17.71685760498047,54.93906752743602
45529,1.42024658203125,11.823013916015626,5.945785675048828,56.74683897735442
45593,2.8313621520996097,0.8343649291992188,-0.7945477294921875,54.08653705098353
45659,8.007747802734375,-6.722221069335938,-2.682421875,49.07083366115026
45728,3.870052185058594,-6.2438159179687505,-4.271217956542969,41.69850701861498
45793,9.345665588378907,4.051025848388672,-6.2614791870117195,48.68679697679197
45859,22.98305648803711,39.859561614990234,10.186317443847656,49.751329846551606
45926,2.019749908447266,20.736827545166015,8.771609344482423,50.27777574498109
45993,-5.501659240722656,4.991520080566406,6.266418914794922,43.0713219065578
46059,-7.9204792785644536,1.9320323181152346,4.046235809326172,48.92322825710941
46126,-6.988966369628907,3.4588572692871096,3.167113952636719,49.42127157460916
46193,-2.9774583435058597,24.141796875,11.119626617431642,57.22396970005299
46259,2.441423034667969,23.176604003906252,15.252382507324219,46.57256691523987
46326,1.9727476501464845,5.804180145263672,-1.2662168884277345,39.52937667750981
46393,3.82963623046875,-8.666827239990235,-3.320844268798828,50.951937689089675
46459,4.908742218017578,-7.091952209472657,-4.197271728515625,37.59063188160487
46528,15.1987939453125,6.857988739013672,-1.84177001953125,47.03901541534225
46593,13.598022766113282,22.982757110595703,8.530311126708984,56.31678103036943
46659,15.47511932373047,27.55170593261719,24.988436279296877,53.81203555811916
46728,-0.5355862426757813,11.830198974609376,1.517095184326172,48.352465399963116
46792,-8.151448974609375,0.40086639404296875,3.3545242309570313,43.122408451442126
46859,-10.193951568603516,0.4387376403808594,3.932173004150391,58.97317477417058
46928,-3.3632061767578127,11.651620330810548,6.574627990722656,68.81982726543586
46993,0.290994873046875,32.67929306030273,20.911065216064454,69.34441383219301
47059,5.680686950683594,14.019396514892579,6.652765502929688,50.59351330456469
47129,2.2915846252441407,0.5463638305664062,-2.368973693847656,44.82787859132658
47193,6.602320404052735,-6.2614791870117195,-4.549189910888672,34.28782511496954
47259,4.198169860839844,-5.783373413085938,-4.624483337402344,42.236516671871804
47328,9.643546142578126,1.0199789428710937,-2.6099725341796876,41.21559844187501
47393,34.580938568115236,37.21486129760742,10.947334899902344,40.12330955580147
47459,9.115743713378906,24.039409790039063,19.317928161621094,48.3062074242556
47528,-7.825726318359376,7.453151092529297,2.2721250915527347,41.79781515836983
47593,-9.360933837890625,2.229314117431641,4.970563659667969,48.65506680437694
47659,-7.150181121826172,3.995940399169922,3.836222534179688,51.97569991313208
47728,6.361920318603516,16.853303375244142,6.405030670166016,51.44038403024982
47793,-3.1293923950195315,22.310804443359377,10.442584533691408,47.753701180195485
47859,-7.242539062500001,9.733059997558595,0.2640509033203125,50.75937286017105
47928,0.9958790588378906,-0.05478607177734375,-0.9990225219726563,34.671639659690904
47993,7.018904113769532,-4.453389129638672,-0.9068142700195313,34.5132580848952
48059,5.457501068115235,-3.1118788146972656,-3.9583685302734377,38.885725968576004
48129,9.740394744873047,3.063978424072266,3.543132019042969,41.88197016558756
48193,29.39886474609375,37.80433547973633,7.470365295410157,49.98172121939441
48259,3.3763787841796877,22.13372268676758,8.258775787353516,47.17470781461881
48326,-8.147557067871094,8.812624053955078,-2.0017872619628907,56.27002085084402
48393,-7.100783843994141,1.6471746826171876,1.5579602050781252,57.69824684799967
48459,-2.53153564453125,6.451434173583984,4.428391113281251,54.554889665733526
48526,1.9559825134277344,29.774583435058595,14.809004516601563,52.05945605636532
48593,2.7460395812988283,16.23149642944336,4.9283514404296875,56.37079257398181
48659,-0.6369255065917969,1.9197578430175781,-2.4740551757812503,50.32622789537803
48728,2.5524920654296874,-6.9216064453125,-3.2936009216308597,44.321993787533046
48793,4.763244781494141,-5.797893218994141,-2.9220735168457033,38.404197777364864
48859,11.365415496826172,0.8728349304199219,-0.9129515075683594,52.49843814089944
48926,25.804090118408205,31.156659393310548,11.959080963134767,49.31432442867229
48993,4.874613189697266,21.730610961914063,16.969611511230468,57.36961116359847
49059,-5.5851855468750005,9.422306213378906,2.008074188232422,42.99550878499019
49126,-9.770332489013672,2.3598426818847655,5.901328125,52.885979523594614
49193,-5.009482727050782,5.5076467895507815,4.134701843261719,53.743596893269114
49259,-0.061372375488281256,20.72590026855469,10.667267303466797,61.11595501938445
49326,2.9870384216308596,23.859334259033204,20.431761932373046,54.71840101629131
49393,6.0394908142089845,4.131109313964844,0.0844244384765625,53.52552958037354
49459,5.6091357421875,-6.260131988525391,-3.160377960205078,49.528747430069096
49526,3.2298335266113285,-7.632178802490235,-4.257745971679688,44.32359889706791
49593,9.605674896240235,-2.981200561523438,-3.6417768859863284,39.37267072211413
49659,24.598197784423828,25.959766387939453,3.5128948974609377,48.24802467354563
49726,15.545323333740235,27.36264907836914,23.707998962402346,54.324802340030004
49792,-4.820425872802734,10.730286254882813,3.26441162109375,48.1949129059582
49859,-8.483159179687501,3.926634521484375,6.786886596679688,58.37758840135747
49932,-8.011639709472657,2.7830126953125003,2.871329040527344,65.08320533924581
49992,-1.2087364196777344,7.429649963378907,8.029602355957032,65.49621997404935
50059,-4.600383453369141,26.5845671081543,14.12387924194336,46.324977839550115
50128,5.947881317138672,17.512981567382813,11.8074462890625,44.9270452762321
50193,2.548450469970703,4.7312113952636725,-1.7110917663574219,41.90919698912573
50259,6.0044636535644536,-3.1491513061523437,-2.0591180419921877,41.03324707061445
50326,3.1787896728515626,-5.351671142578125,-3.8410125732421876,40.791450533327485
50393,7.0680020141601565,-2.208058319091797,-5.621709594726563,45.87464009066074
50459,19.338585205078125,31.149025268554688,9.538314971923828,62.373230162330145
50526,6.244414672851563,24.885899505615235,18.87035888671875,49.6065625254294
50593,-6.103856964111328,8.759334869384766,0.11645782470703125,50.63273296789098
50659,-4.906047821044922,1.625020751953125,3.856580200195313,55.20800458596768
50726,-6.559808807373047,4.242627410888672,1.8088385009765626,60.99886347163026
50793,1.0934761047363282,15.557298431396486,8.606053619384767,63.69667177725698
50859,0.2628533935546875,24.277564544677734,16.825161895751954,56.629286835079824
50928,-1.663341064453125,6.8127827453613286,2.8912376403808597,43.19314304090512
50993,3.6324961853027347,-2.1377046203613284,-1.199605407714844,58.3023826918877
51059,6.696025543212891,-6.635102233886719,-4.616100769042969,61.019621064195164
51128,9.855056304931642,-1.8994001770019533,-5.315296783447266,60.13411126009678
51193,16.003670196533204,22.22952346801758,7.437134399414063,42.98110431135712
51259,9.98812957763672,22.841001892089846,26.786946258544923,57.909793393482865
51328,-4.21568344116211,13.571976928710939,-1.9664607238769531,47.694216395787436
51393,-7.904462585449219,3.396736450195313,4.0284228515625005,67.76221961139562
51459,-6.4809228515625,3.8684056091308596,2.738255767822266,75.77179846004948
51526,2.9259654235839845,10.893147583007813,10.423125,54.9163479318774
51593,-7.317832489013672,21.922362213134768,14.29153060913086,56.83983095679022
51659,-3.678600311279297,11.617191925048829,4.41881103515625,63.66789851090262
51726,3.636388092041016,1.2647200012207032,-1.615290985107422,48.47010921039175
51793,5.376669158935547,-4.921615447998047,-4.387376403808594,46.10042344439408
51859,3.9878572082519534,-3.507506103515625,-4.054618377685547,41.64947372621842
51926,15.68019287109375,11.383677520751954,5.039719848632813,47.14530930666101
51993,24.495511322021486,32.16630981445313,16.572786712646487,46.42731544081733
52059,3.4048196411132814,18.87380172729492,9.395811309814453,43.59778584139239
52126,-6.397995300292969,3.8342765808105472,3.8408628845214845,58.531881942481554
52193,-8.20339096069336,0.6008505249023438,2.8364515686035157,67.49289659054747
52259,-5.699847106933594,3.211272125244141,0.7502398681640625,75.46345569978709
52326,-5.473368072509766,24.500750427246096,12.638218688964844,54.5045542618593
52393,7.4395294189453125,20.418289947509766,22.98410430908203,59.04418522598003
52459,1.4016851806640627,5.513634338378907,-0.7472460937500001,58.169025153050995
52526,4.6816644287109375,-4.1076081848144534,-1.603315887451172,56.54448011436002
52593,6.035149841308594,-7.823181610107422,-5.226531372070313,58.76831310075679
52659,11.557615814208985,-3.782783660888672,-5.3703822326660156,50.308546383059394
52726,26.562413177490235,27.86081314086914,16.303197326660158,37.47100931364986
52792,9.000633087158203,27.350823669433595,8.86202133178711,51.26355480481057
52859,-1.923050994873047,10.990445251464845,-3.497476959228516,53.76826878174437
52926,-4.056264953613281,3.1055918884277345,0.5182223510742188,64.28479176132794
52993,-5.044360198974609,0.10523117065429688,1.420096893310547,64.2813706272538
53059,-1.1451187133789062,11.588601379394532,4.295018463134766,61.74021408926653
53126,-2.434687042236328,30.707144165039065,11.413016510009767,50.85672247032641
53193,-3.6169285583496094,15.446379089355469,8.006699981689454,51.178312076026984
53259,3.8338275146484375,3.789968719482422,-1.5322137451171876,54.45769172708204
53326,9.711654510498047,-6.178851013183594,-3.416195983886719,45.66590676255501
53393,0.6397695922851563,-7.414232025146485,-7.577093353271485,49.10528358634626
53459,13.938115539550783,2.298769683837891,-0.12903167724609377,50.35461758717034
53526,33.224459381103514,35.631903076171874,13.413755950927735,49.2443953183905
53592,2.382894744873047,19.921173706054688,13.682896270751954,58.44711966793821
53659,-6.525979156494141,5.415588226318359,-0.7213499450683594,52.91180082280876
53726,-6.12690902709961,1.7778529357910158,0.9391470336914063,60.965370545281
53792,-4.778363342285156,3.0133836364746096,3.061733093261719,68.72009578860002
53859,-0.5843847656250001,15.434104614257814,10.031090240478516,54.12905534226954
53926,0.7382647705078126,22.965093841552736,15.331567840576172,52.70285114740271
53992,-3.600462799072266,10.691367187500001,-0.25042922973632814,57.76639448779765
54059,4.645888824462891,-0.6497987365722656,-0.8325686645507813,57.28124803829343
54126,6.564149780273437,-6.155349884033203,-2.9964688110351565,50.66732071001867
54193,6.027964782714844,-3.5569033813476563,-5.651198272705078,50.47076176033571
54259,16.93802719116211,22.744153289794923,10.825787658691407,34.019172505175746
54326,14.916481018066406,28.0119987487793,19.607725524902346,53.06836607970667
54393,-4.233496398925782,14.563515014648438,4.084556121826172,58.361651829629714
54459,-6.05984848022461,3.1461575317382815,3.6607873535156252,66.12686394339804
54526,-6.683152313232422,-0.8158035278320312,1.8232086181640625,66.72166323221967
54593,-1.6887881469726564,6.763235778808594,1.0806028747558594,60.61234145998871
54660,-8.235124969482422,21.563558349609377,13.410313110351563,63.77803837895583
54726,-2.1953347778320316,14.679374084472657,13.111384735107423,64.73066924668737
54793,-0.8238867187500001,6.923402709960937,3.3588652038574223,54.56831966338781
54859,6.279441833496094,-2.066602478027344,-0.4135899353027344,53.03364556915678
54931,4.090992736816406,-4.847818908691407,-5.0885183715820315,54.71165512571637
54993,7.516170043945313,1.0409353637695313,-1.550775146484375,45.9698174313352
55059,20.01712417602539,27.447672271728518,7.033274230957032,49.05315463083396
55126,2.6914031982421878,20.884270935058595,24.189397888183596,51.001636889660446
55193,-3.8552330017089846,11.322005767822267,2.5438101196289065,47.151673578484576
55259,-6.156098327636719,1.4917977905273438,4.049678649902344,63.33783093073373
55326,-7.512278137207032,1.853445739746094,3.2563284301757816,51.40473474084253
55393,0.4739144897460938,11.289972381591797,10.378368072509765,60.506295101105664
55459,0.5060975646972656,24.53787322998047,25.08438674926758,61.68497483523033
55526,-0.45026367187500005,10.40201889038086,7.050039367675781,61.56172842079119
55593,5.880970458984375,-2.4697142028808594,-3.9980360412597657,56.79888295381696
55659,4.998256072998047,-7.923473052978516,-7.401807861328125,33.877456596088635
55726,5.622607727050782,-4.931045837402344,-4.97250961303711,37.471786713601645
55792,24.383394470214846,24.248225555419925,9.653425598144532,35.389505620143616
55859,11.258837127685547,21.66669387817383,24.728876037597658,57.13580416791209
55929,-1.1427236938476564,16.259937286376953,-0.08906478881835939,52.362172166827605
55993,-5.9850041198730475,2.0850141906738284,1.9785855102539063,49.87076081463908
56059,-7.170538787841798,-1.3756393432617189,3.0790969848632814,38.232133132826675
56126,-3.2591725158691407,5.283263397216797,1.7004638671875,41.38997014032636
56193,-10.04082000732422,19.938836975097658,13.491444396972657,43.5191220632801
56259,0.2173480224609375,17.523908843994143,17.58992156982422,45.669204277558265
56326,3.9342686462402345,8.133636016845703,-3.0099407958984377,39.18292512755356
56393,7.366181945800782,-4.084107055664063,-3.7347335815429688,32.24014811372864
56459,4.769382019042969,-5.774242401123047,-5.836213531494141,43.119021314194896
56526,12.661570129394532,4.344116363525391,1.1193722534179689,63.49616281034726
56593,20.887713775634765,29.569958953857423,18.852396240234377,60.81478728619062
56659,-1.0585986328125,19.736607513427735,17.44951354980469,52.80355247762362
56726,-4.796625366210938,9.347461853027344,1.1645782470703125,54.63831795418018
56793,-5.097050628662109,-0.7334747314453125,1.6425343322753907,50.32171344121746
56859,-5.453459472656251,-1.3684542846679688,1.7464183044433594,56.901393521465266
56926,-1.1430230712890626,9.009015655517578,1.4437477111816408,60.310119643450705
56993,-7.333699493408203,24.228167266845706,23.54109603881836,60.89628911203148
57059,0.06032455444335938,15.49233352661133,10.605445861816406,55.02700175310562
57126,5.222040710449219,2.677781524658203,-0.5099894714355468,44.7842218774008
57193,6.203699340820313,-6.510860595703125,-5.045408020019532,39.03686731736502
57259,3.077450408935547,-7.207661590576172,-5.6398219299316406,56.733831291345396
57326,18.696270904541016,13.30568069458008,7.898624725341797,57.75558023714643
57393,24.704476776123048,36.85291397094727,15.037728881835939,60.06351356249478
57459,-0.21989273071289064,16.564553833007814,5.993985443115235,59.46311735240827
57526,-8.000113677978517,3.479813690185547,2.1116587829589846,53.9675363437411
57593,-6.704557800292969,-0.6090834045410156,2.26329345703125,58.77839946694749
57659,-0.29608428955078125,7.949668579101563,0.17079483032226564,55.28501480791598
57726,-9.773775329589844,22.476060791015627,9.362879791259767,57.54194623316883
57793,1.4400054931640627,16.24257339477539,8.318950653076172,60.929233616710846
57859,-0.811761932373047,7.054829406738282,-0.2442919921875,64.5858905424368
57926,5.168302459716797,-3.878584442138672,-1.1605366516113282,55.88530525254619
57993,5.448968811035156,-7.604785766601563,-4.633314971923828,56.9314456884691
58059,10.739866333007813,-4.478387145996094,-6.878047027587891,53.74497225556815
58126,32.21331207275391,33.91197967529297,14.80930389404297,50.225726995925086
58193,5.108426971435547,27.403663787841797,20.207528228759767,48.666358165769985
58259,-5.857918395996094,10.281519470214844,0.3879931640625,50.86274387290159
58327,-8.62491439819336,0.19444564819335938,2.9991632080078126,56.63563361317923
58393,-7.170538787841798,1.6853453063964845,2.4828868103027344,55.23976555919974
58459,1.0367440795898437,12.10921875,4.491260375976562,61.96742527060023
58526,-2.0157083129882816,25.989853820800782,18.332078247070314,63.27772594415301
58593,-0.446671142578125,16.33059036254883,7.575746154785157,55.751127609339804
58659,4.888384552001954,1.8815872192382814,-1.653461608886719,41.914789604435995
58726,7.643704833984375,-9.451345825195313,-4.398153991699219,50.663072857138914
58792,3.7907171630859375,-6.730753326416016,-7.635621643066407,52.522460504731185
58859,16.793278198242188,11.414363708496094,5.61437484741211,71.54099394007709
58926,25.243505859375002,32.30671783447266,23.329436187744143,58.99387633203667
58993,1.0189311218261718,18.699114990234374,5.739813995361328,53.666769218781255
59059,-6.5889981079101565,3.180436248779297,6.619833984375,65.67594226116628
59128,-8.340206451416016,-0.15417938232421877,0.6605763244628906,48.850444314619175
59193,-6.935228118896485,7.4800950622558595,2.006427612304688,50.04489039282913
59259,-0.6147715759277345,22.647005310058596,17.568216705322268,61.1828556378634
59326,4.496200103759766,14.816788330078126,11.149564361572267,65.42961418235217
59393,-1.0307565307617188,3.6061509704589847,-3.639082489013672,68.17990003699164
59459,6.219716033935547,-4.400399322509766,-2.7502308654785157,69.47212400797272
59528,4.9740065002441405,-4.650978240966797,-4.8632368469238285,67.92000017473842
59593,13.138179016113282,4.098327484130859,-3.892505493164063,70.33397053597959
59659,15.437996520996094,24.745940551757815,15.407759399414063,70.10100321912435
59726,5.793252868652344,26.91612762451172,25.007446746826172,59.412340714068044
59793,-7.673043823242188,9.623936920166017,3.4326617431640627,61.429307452027274
59859,-5.356910247802735,0.13412109375,0.7875123596191407,65.3665135145218
59934,-6.417754211425781,1.2735516357421877,1.676363983154297,56.51454410303344
59993,0.5442681884765626,13.562995605468751,6.116730194091797,64.04594960019894
60059,-2.0734881591796874,24.937093048095704,18.374290466308594,65.16318767571086
60128,-3.9776783752441407,11.419453125,6.325396270751954,72.3817293374123
60193,4.874613189697266,2.5834776306152345,1.1334429931640626,65.96891326650334
60259,8.553512878417969,-7.404502258300782,-2.3044578552246096,62.37387886930175
60328,3.5955230712890627,-2.2493724060058593,-8.030051422119142,64.28324513344363
60393,17.106876068115234,8.42702590942383,2.7734326171875003,67.22849946753448
60459,14.97650619506836,27.610533599853518,18.83188888549805,62.32437009220555
60526,1.4672488403320314,19.801422729492188,19.85890319824219,53.655609851552484
60593,-5.661975860595703,5.455704803466797,4.07437728881836,67.55759561852359
60659,-8.001311187744141,-1.829645233154297,2.8861482238769534,57.10006449239636
60728,-6.284231872558594,2.8404931640625,2.841391296386719,52.8832748992462
60793,0.06331832885742188,16.086148681640626,15.545473022460937,64.73360385798097
60859,1.3397140502929688,20.680245208740235,19.726578369140626,59.62236706418142
60928,-0.7162605285644532,8.935668182373048,0.961450653076172,63.725137785167504
60993,5.1186058044433596,-1.9080821228027345,-1.2388238525390625,62.03748502043296
61059,5.715115356445313,-5.969735870361329,-3.9233413696289063,61.55162588743332
61128,7.394473114013672,-2.7041267395019535,-6.279890899658203,55.421516859598356
61193,16.431031494140626,16.543148345947266,10.60364959716797,59.0247393783578
61259,20.61378341674805,23.362667083740234,32.991543731689454,54.42384119675245
61328,-1.4681469726562502,14.488520965576173,5.689967651367188,51.093490222012264
61393,-10.938652954101563,-1.1749067687988282,6.3812301635742195,53.534969218938315
61459,-7.223528594970704,-0.00449066162109375,-2.0972886657714844,67.64934849233977
61528,-5.1889595031738285,10.796748046875,1.799707489013672,54.68626430020972
61593,-3.909420318603516,28.917166442871096,19.896624755859374,62.96013039798044
61659,-0.8178991699218751,12.434642028808595,8.76053237915039,63.784215230181076
61728,1.9595750427246095,3.6275564575195314,-0.5339396667480469,66.25767912513865
61792,5.9709333801269535,-4.863685913085938,-4.12227767944336,45.271657181376256
61859,3.943100280761719,-4.803810424804688,-6.698270874023438,38.13314058945835
61928,13.794114990234375,4.240681457519531,-0.049846343994140625,54.08239965311849
61993,16.75735290527344,26.46107391357422,10.953621826171876,46.01853652439692
62059,11.250903625488283,22.519021453857423,28.10211135864258,53.899612670516284
62128,-5.969885559082032,10.448422393798829,3.2585737609863283,52.213124992911474
62193,-6.680906982421876,2.990930328369141,3.2853680419921876,61.00657567158763
62259,-6.159990234375,2.7475364685058596,0.04026626586914063,68.29417832535752
62328,0.6547384643554688,11.908635864257812,6.988068237304688,53.754294889965585
62393,-3.6931201171875,24.35480392456055,19.507733459472657,52.59192365105342
62459,-5.066663818359375,10.52461395263672,6.227350158691406,50.35985759362046
62528,5.243296508789062,3.9883062744140627,-3.7348832702636723,47.397463438077736
62593,6.332731018066407,-5.499713287353516,-4.318519592285156,35.17063873482655
62659,2.6370661926269534,-5.789660339355469,-3.0732591247558596,38.24125833916549
62728,12.997621307373047,2.884501647949219,2.066003723144531,54.24023629473025
62793,23.28767303466797,36.49455917358399,16.764238586425783,54.77228367481835
62859,0.3158432006835938,20.687430267333987,11.855496368408204,47.69584083748172
62926,-6.452182617187501,5.967939605712891,1.5822097778320314,57.38872479704548
62993,-5.903274078369141,0.4315525817871094,2.849923553466797,42.12081015992108
63059,-5.290897521972656,4.809498596191406,1.2799882507324218,61.01101681071553
63126,3.1846275329589844,17.68422546386719,8.550070037841797,54.8030883085994
63193,1.0659333801269533,21.83239929199219,16.062048797607424,64.3415452998469
63259,-3.2001951599121097,11.711944885253907,1.8866766357421876,61.810494176699386
63326,4.0127055358886725,-3.8815782165527346,-2.3998095703125,52.44022160896681
63393,4.292174377441406,-8.613687744140625,-5.177732849121094,50.12584163914151
63459,8.191565551757813,-5.457950134277344,-4.969366149902344,46.83020006620726
63526,21.52838150024414,22.869293060302734,5.881868591308594,60.64866632752663
63593,17.19564147949219,30.59772171020508,18.807040557861328,50.773424646948996
63659,-0.4314028930664063,16.47234558105469,2.4005580139160156,41.96480167700148
63729,-7.997269592285156,1.9043399047851564,4.487218780517578,52.13785953938939
63793,-7.42500961303711,0.44442581176757817,0.077838134765625,48.4600910214548
63859,0.0772393798828125,11.447295227050782,4.457879791259765,49.79857824439188
63926,-4.301754455566407,24.409140930175784,16.916172637939454,50.501902186512844
63993,-2.2570065307617186,12.494667205810547,0.6412664794921875,55.43730404281484
64059,-0.8839118957519532,3.888164520263672,-5.46782958984375,61.45622719375542
64129,4.626878356933594,-5.124743041992188,-3.9724392700195312,50.66426565640322
64193,2.328857116699219,-6.798262939453125,-0.2606080627441406,49.76712122207094
64259,9.290131072998047,-1.3488450622558594,-1.926793212890625,50.13671280649909
64326,32.89843734741211,33.803904418945315,5.899980926513672,51.34983088332213
64393,10.291997680664062,24.606280975341797,5.150639190673829,45.06369717095504
64459,-6.429429931640625,9.579629058837892,1.9137702941894532,47.870777300218066
64528,-7.359296264648438,5.705235900878907,5.368136901855469,40.44539760392411
64593,-5.5060002136230475,6.722221069335938,4.244872741699219,51.15307564673961
64659,6.288872222900391,16.97455123901367,8.209827575683594,46.61197235686104
64726,0.8551716613769532,21.70890609741211,12.99103500366211,48.62530889597995
64792,-2.322869567871094,8.57701400756836,-0.561632080078125,57.738829441443286
64859,3.0458660888671876,-0.3254232788085938,-3.6920722961425785,51.195033270295184
64939,5.136568450927735,-6.873556365966797,-3.859424285888672,44.460864848133355
64993,6.92205551147461,-4.7470783996582036,-5.065316619873047,36.030360562505216
65059,19.159557495117188,12.939392395019532,4.208947448730469,60.17679706284756
65126,24.0795263671875,35.199302673339844,10.156529388427735,59.398575709906794
65193,3.760030975341797,21.35249725341797,12.563823394775392,48.138344198368024
65259,-8.810977478027343,6.427783355712891,2.758912811279297,38.048206787211626
65328,-7.443571014404298,0.5022056579589844,1.6854949951171876,42.43881002218319
65393,-4.186793518066406,6.3053379821777344,1.780547332763672,37.767011839884105
65459,-0.3043171691894531,21.819526062011718,12.84493881225586,41.80985580786731
65526,1.052611083984375,19.20551193237305,12.709021453857423,51.159198986630365
65593,-1.116228790283203,7.355254669189454,-3.584146728515625,53.1975129337632
65659,4.193379821777344,-4.354893951416016,-4.737198944091797,47.075190796237436
65728,3.2561787414550785,-6.2914169311523445,-4.389771423339844,42.47310277455655
65793,9.490115203857423,-3.654500427246094,-2.3968157958984375,50.86975238258234
65859,17.836758270263672,24.094195861816406,6.854246520996094,67.41377199973681
65926,3.759731597900391,26.395510253906252,20.81646194458008,56.28868943283639
65993,1.6630416870117188,18.36111785888672,3.1368768310546877,49.50184672431875
66059,-6.514153747558594,6.132746887207031,3.4946328735351564,46.84315630142585
66128,-6.183491363525391,0.6489006042480469,4.334386596679687,43.67001630838441
66193,-1.039288787841797,7.27651840209961,0.9798623657226563,41.835545336188616
66259,-5.92048828125,23.83852752685547,12.640763397216798,45.444525349278294
66328,-1.2108320617675783,17.134718170166018,3.8475988769531253,49.38214410930274
66393,1.0867401123046876,3.680695953369141,0.9761201477050782,46.78318029299685
66459,1.0871891784667969,-8.050708465576172,-9.314829711914063,47.75144232274349
66528,3.3211436462402344,-7.946375427246094,-2.465373229980469,44.78883804186282
66593,15.716267852783204,0.014819183349609376,2.869083709716797,65.89110345804225
66659,31.385982513427734,38.01958786010742,9.95130615234375,55.90886398373239
66726,3.955075378417969,23.30114501953125,10.464888153076172,47.488312369236176
66793,-7.21140380859375,9.890382843017578,1.8735040283203126,43.299264407954524
66859,-6.276298370361329,1.9823277282714844,3.8589752197265628,39.97298992409514
66928,-5.620512084960938,3.859723663330078,-2.238145751953125,39.83851718991472
66993,2.1802162170410155,14.210698699951173,8.043673095703125,38.78579238062219
67059,-1.6769627380371095,21.12018035888672,18.290015716552734,45.419035956845626
67128,-2.678529968261719,7.993227996826172,1.6378939819335938,39.60851153719686
67193,3.9942938232421876,0.6468049621582032,1.2981005859375,46.39366942225053
67259,6.7808990478515625,-6.269113311767579,-4.387376403808594,37.594411971336974
67328,7.526797943115235,-5.871689758300781,-5.908662872314453,58.31433982006183
67393,21.955293731689455,15.024107208251953,8.67520980834961,48.81481663099998
67459,19.29322952270508,27.568620758056642,23.656805419921877,49.30862469127732
67527,-2.229314117431641,14.40499465942383,2.1606069946289064,45.957056026935376
67593,-7.408543853759766,3.0728100585937503,2.797981567382813,36.55042341331202
67659,-10.203381958007814,0.9268725585937501,2.5909620666503907,41.85060282521392
67726,-3.859723663330078,9.435628509521484,8.4687890625,46.53280065440868
67792,-2.9660820007324222,24.64041000366211,19.281104736328125,46.21249004426977
67859,0.7261399841308595,11.788136444091798,9.50149154663086,54.444039557495515
67928,2.0516336059570315,1.9820283508300782,-0.9618997192382813,52.24652172962404
67993,6.616540832519531,-7.743397521972657,-3.899840240478516,33.4966598409663
68059,4.258644104003906,-10.737171936035157,-7.973618774414063,40.840755677786746
68126,19.177071075439454,1.1268566894531251,-5.741909637451172,57.038225264324076
68193,28.08115493774414,35.30872512817383,24.7595622253418,57.23692868317846
68259,3.962410125732422,22.103934631347656,10.61846878051758,45.50472957106564
68328,-7.333699493408203,6.7051565551757815,3.788621520996094,45.520473518436184
68393,-5.6697596740722656,2.273023223876953,-0.2682421875,45.66107373667576
68459,-4.470603332519532,6.751859436035157,1.2421170043945313,48.01726052300812
68526,3.156336364746094,17.7996354675293,13.5222802734375,49.773211250122685
68593,1.9040405273437502,18.235828399658203,18.040933685302736,51.1693301098468
68659,-1.4144087219238282,3.789519653320313,-4.093387756347656,44.31186793318
68728,4.201163635253907,-8.405919799804687,-5.520520019531251,44.241790135787824
68793,5.044360198974609,-9.53307586669922,-4.9443681335449226,36.572471298837165
68859,15.298037567138673,-3.224444732666016,-3.4096096801757816,59.70048254253625
68926,34.29203933715821,38.798118896484375,12.532837829589845,45.98888950273394
68993,4.677323455810547,23.767575073242188,19.398909759521484,47.664723354327315
69059,-5.676345977783203,10.765463104248047,2.9999116516113284,46.24519294067318
69126,-7.904911651611329,2.6325755310058594,6.647077331542969,46.17639772655201
69193,-3.5893858337402347,9.088200988769533,2.4721092224121093,47.38384123512156
69259,3.9462437438964844,10.71097640991211,7.654332733154297,46.682274541748576
69328,-9.987231445312501,18.416652374267578,12.08092758178711,47.02421919406032
69393,-5.501210174560547,8.54108871459961,1.4347663879394532,48.29232993148065
69459,1.5274237060546876,-0.9231303405761719,-5.013075256347657,41.33347265586242
69526,5.378615112304688,-7.34836898803711,-2.318079528808594,37.621531923035946
69593,6.023324432373047,-6.430028686523438,-3.869154052734375,45.75430335305532
69659,23.434068603515627,10.997779998779297,0.051043853759765626,57.4528720024007
69726,15.436050567626953,26.87391540527344,30.346544036865236,55.55182750177984
69793,1.016685791015625,16.758101348876956,8.027506713867188,47.941184254088746
69859,-5.770799560546875,7.225923614501953,5.414839782714844,39.688563746146926
69938,-6.306236114501954,2.7494824218750002,1.387913818359375,44.02673981154294
69993,-2.2947280883789065,8.819659423828126,3.434008941650391,38.53454841368067
70059,-5.926475830078125,11.0602001953125,18.885627136230468,49.01714354325432
70126,0.7105723571777344,11.387719116210938,18.326839141845703,50.932079877291514
70193,-1.9935543823242188,2.1906944274902345,-2.4544459533691407,48.95356236476427
70259,6.1153829956054695,-6.250402221679688,-5.019062805175781,40.61490176624815
70328,3.9725889587402348,-7.782466278076172,-3.5507661437988283,38.41672250073634
70393,11.234587554931641,-0.9981243896484375,0.5822891235351563,51.816063755289214
70459,29.698990631103516,33.20559860229493,14.973362731933594,46.322952873402066
70526,3.8585261535644535,23.831941223144533,19.01825134277344,55.50995947367829
70593,-5.608986053466797,12.164902954101564,-0.7086264038085938,39.88692702549817
70659,-6.892716522216797,3.7477565002441406,4.4881169128417975,46.453141735605755
70728,-6.9376231384277345,1.9778370666503908,5.999374237060548,37.74881765818797
70792,6.298152923583984,17.051341552734375,5.517526245117188,51.67831093602893
70859,1.4199472045898438,28.208540039062502,17.836907958984376,53.81991813116966
70926,-2.4168740844726564,6.848408660888672,3.034190368652344,56.029916387291124
70993,0.8683442687988282,-2.464325408935547,-2.041754150390625,44.50310706005005
71059,7.8586578369140625,-5.469775543212891,-5.448370056152344,44.21932813278509
71128,7.083120574951172,-4.044439544677735,-5.018913116455078,51.04268543375269
71193,13.54518264770508,7.053182830810547,4.349056091308594,40.02338880892056
71259,24.521257781982424,39.260806732177734,18.197059020996093,46.509094828956094
71326,0.21630020141601564,18.835481414794923,8.870703277587891,47.26613120444927
71393,-9.304800567626954,5.119803314208984,2.5328828430175783,41.93013226515948
71459,-9.27396469116211,1.253792724609375,1.0916798400878907,39.34599438218073
71527,-4.298161926269532,9.27785659790039,3.5684294128417973,47.21703470530691
71593,2.888243865966797,25.87923385620117,19.36178695678711,61.164091449929856
71659,3.1951057434082033,16.49644546508789,11.190878448486329,61.84978027360988
71728,-1.7371376037597657,3.8862185668945313,-1.488354949951172,57.258993869772496
71793,5.635930023193359,-5.306465148925781,-5.611381072998047,57.58777951670342
71859,1.7175283813476563,-8.269403686523438,-4.294120330810547,47.811016465542224
71928,10.379565582275392,-3.537294158935547,-8.299042053222657,47.05615717476003
71993,32.37886779785156,30.45836151123047,8.554860076904298,54.65544937973628
72059,7.923772430419922,29.03332489013672,17.938546600341798,53.34099737325634
72128,-4.648732910156251,14.916331329345704,1.8434165954589845,46.585837154070624
72193,-7.958799591064453,2.2817051696777346,4.982239379882813,45.508151714962324
72259,-7.720644836425782,0.2998265075683594,2.7059230041503906,45.55662651664352
72328,-1.6191828918457032,8.924890594482422,3.6016603088378907,43.367398334918434
72393,-0.8330177307128906,26.973159027099612,14.981595611572267,52.09975872716051
72459,-0.27333160400390627,13.945450286865235,6.752458190917969,51.2817948078485
72527,-1.9258950805664063,3.6407290649414064,-1.2865745544433593,52.79445634704131
72593,4.903353424072266,-4.320016479492188,-2.69918701171875,52.062401277675896
72659,1.4229409790039063,-5.745202789306641,-3.945345611572266,45.110272917463504
72729,12.112212524414064,-1.4418017578125,-5.67185531616211,50.742567615173925
72793,29.454698638916017,33.603171844482425,12.364737396240235,40.277979433503
72859,1.3916560363769532,24.45659225463867,12.608879699707032,47.340072992777884
72928,-7.528444519042969,10.6578369140625,1.2521461486816408,44.6173856795641
72993,-6.8549949645996096,3.021167449951172,3.3021331787109376,40.442260771126826
73059,-5.927074584960938,3.995940399169922,0.8018824768066407,51.83116033485143
73128,5.829327850341797,19.355200653076174,13.470637664794923,45.60169754085
73193,3.7892202758789066,24.52589813232422,15.880925445556642,46.505794792506165
73259,-4.044888610839844,7.0450996398925785,1.0942245483398438,45.25342877056865
73328,2.332898712158203,-3.533252563476563,-4.052822113037109,43.54953146212556
73393,6.204148406982422,-6.249504089355469,-4.400698699951172,35.20745471519482
73459,6.478228454589844,-3.5256184387207035,-2.4903712463378906,50.25002572672384
73528,14.475498046875,12.766950988769532,3.9736367797851564,54.6267944930938
73593,20.537442169189454,35.0295556640625,12.201277313232422,48.49591377561531
73659,2.330054626464844,18.70225845336914,9.65956283569336,44.24767333568977
73726,-7.019502868652344,6.248007202148438,-0.89334228515625,37.64699063798368
73792,-6.954987030029297,1.6624429321289063,-0.18516494750976564,43.706056009381484
73859,-5.066663818359375,5.984255676269531,2.9322523498535156,44.96569892213299
73926,-2.8696824645996095,21.19382720947266,14.178365936279297,49.56773330971327
73993,2.988535308837891,23.001767578125,17.938696289062502,53.80614586309535
74059,1.4121633911132814,5.112318878173828,-0.00269439697265625,37.02085721435825
74128,4.45713134765625,-7.211703186035157,-6.483617248535157,33.22839272686321
74193,3.4862503051757816,-8.560099182128907,-5.6203623962402345,40.18409207382068
74259,13.34549789428711,-1.7501605224609376,-1.0491682434082032,51.06418697573864
74326,21.84018310546875,26.85191116333008,12.454700317382812,44.299136977637545
74392,4.900060272216797,25.258025665283203,18.163977813720702,51.553724802282034
74459,-4.921914825439454,13.079051971435547,3.8907092285156253,41.07142105833073
74528,-7.472760314941406,3.0858329772949222,-0.162861328125,42.96182372555435
74593,-7.620652770996094,1.62861328125,0.9824070739746095,46.829749501845875
74659,2.1308189392089845,16.32355499267578,5.08028549194336,48.785045612512434
74726,2.0317250061035157,29.646749267578127,21.59499298095703,50.28359746956072
74793,-4.620591430664063,9.969568176269531,0.8973838806152344,43.0918286931039
74859,0.1686991882324219,-1.7780026245117189,-5.6538926696777345,32.922560713564756
74935,6.538553009033204,-6.743177490234375,-2.6599685668945314,38.06993513682107
74993,3.4621504211425784,-5.816005554199219,-1.0541079711914063,44.421190137451596
75059,10.751392364501953,1.1338920593261719,-4.388274536132813,50.455381164506875
75126,33.360825805664064,37.485049438476565,12.018357696533204,58.63015175472487
75193,1.0940748596191407,20.91899871826172,9.649234313964845,43.29479238387489
75259,-5.694907379150391,8.175249481201172,4.061204681396484,44.85849141372047
75328,-6.717131652832031,0.30761032104492186,4.6993276977539065,43.68770198590221
75393,-5.277874603271485,3.6744090270996095,2.9283604431152344,45.11562532733378
75459,2.591261444091797,21.528980255126953,14.385086059570312,40.678145111618406
75526,3.4787658691406254,18.02776107788086,13.27888641357422,48.583567052977735
75593,0.40236328125000004,5.779780883789063,0.07768844604492188,49.00591046692102
75659,5.177732849121094,-6.6154930114746096,-4.818479919433594,35.40954808926133
75726,2.997067565917969,-8.76382553100586,-5.8688456726074225,44.712036694702526
75793,12.734917602539063,-1.3036390686035157,-3.7053945922851566,50.750978366260775
75859,25.63763626098633,34.26270034790039,14.879058837890625,59.583641287166564
75926,4.202361145019531,26.57693298339844,4.367617492675781,46.455008675724365
75993,-4.822222137451172,10.712473297119141,3.4277220153808594,40.17158598487815
76059,-7.7001374816894534,2.031874694824219,1.5861016845703126,37.881683711411675
76108,4.918621673583985,19.22527084350586,13.680501251220704,59.832305967847724
76126,-8.849297790527345,3.633094940185547,-0.6855743408203125,44.791144285431926
76175,5.036127319335938,22.824236755371096,16.44749725341797,44.19807105171499
76242,-4.492457885742188,7.392976226806641,2.865640869140625,56.76914814890247
76636,2.0474423217773436,15.573015747070313,7.7037300109863285,41.94597585242509
76643,2.0474423217773436,15.573015747070313,7.7037300109863285,41.94597585242509
76708,-8.26715835571289,2.33993408203125,-0.6863227844238282,38.70579460552685
76775,-7.0081265258789065,0.032931518554687504,2.391427001953125,36.95744275197323
76842,-4.170627136230469,9.633516998291016,5.456153869628906,50.49508747537829
76909,0.9376501464843751,19.75846206665039,14.596296844482422,49.493607273782814
76975,2.385289764404297,14.432387695312501,6.556515655517578,54.11902410336752
77045,-6.3002485656738285,4.323609008789063,-5.650000762939453,43.49180358996378
77109,1.001267852783203,-2.750829620361328,-4.057761840820313,36.2879748556671
77175,6.764582977294922,-6.747817840576173,-1.6729211425781252,37.39730528564718
77242,9.685309295654298,-3.1226564025878907,-6.1346928405761725,46.063813651106045
77309,20.714374237060547,21.69558380126953,6.766229553222656,51.95794523824291
77375,19.409088592529297,28.77092056274414,16.390316162109375,55.988594195632764
77442,1.9595750427246095,18.04452621459961,9.046138458251953,42.2284647997415
77509,-7.970924377441406,5.030439147949219,2.993624725341797,44.54661960666197
77575,-6.348298645019532,1.9309844970703125,0.358055419921875,48.89738579077391
77642,-0.4345463562011719,11.796369323730469,2.481090545654297,43.12410102994809
77709,-3.3546739196777344,24.15856201171875,19.819834442138674,46.46805483311276
77775,0.08696914672851563,12.39422607421875,8.030201110839844,49.778652993183314
77845,0.6569837951660157,2.8464807128906253,-0.9265731811523438,56.8621785827171
77909,7.810907135009766,-5.2450927734375,-2.025737457275391,42.1900787825689
77975,1.7622853088378907,-5.318889312744141,-4.927602996826172,46.141903855590705
78044,10.550510101318359,-3.380420379638672,-5.230123901367188,47.685493096539076
78109,34.141003417968754,32.474518890380864,10.730885009765625,44.23213095757849
78175,7.5962535095214845,25.518184661865234,27.320736236572266,53.81201750377745
78242,-5.505102081298828,10.328521728515625,2.9789552307128906,49.39444367803897
78309,-7.909102935791016,0.5767506408691406,5.878874816894531,40.453229787866576
78375,-6.363117828369141,1.6039146423339845,0.4355941772460938,47.97606809070327
78445,3.029550018310547,15.351476440429689,11.76762908935547,59.28214516944004
78509,-0.45265869140625004,24.72513381958008,18.563197631835937,50.83542034207538
78575,-1.3418096923828127,9.538165283203126,4.612957305908203,56.35203174350736
78643,1.4347663879394532,-2.772085418701172,-3.160377960205078,42.38923845992416
78709,4.981940002441407,-7.156018981933594,-3.7745507812500003,28.65103974641128
78775,5.2834130859375,-3.464096374511719,-4.846172332763672,28.215135284047733
78845,24.149730377197265,17.85427185058594,4.200415191650391,53.213042449338175
78909,14.33613784790039,26.837391357421875,16.02357879638672,47.12700198049791
78975,2.2438339233398437,21.156255340576173,9.383985900878907,42.98547435078706
79044,-6.744524688720704,6.265520782470704,1.3001962280273438,50.30903176839299
79109,-8.211474151611329,-0.5812413024902344,2.072440338134766,43.5531739878456
79175,-4.157604217529297,6.0114990234375005,7.8357554626464845,53.19062315216536
79242,1.5814613342285158,20.993543701171877,16.506175231933593,52.50776075368313
79309,-1.660796356201172,14.230158233642578,5.138963470458985,51.56355280682101
79375,-0.37601806640625,4.558620300292969,-2.758613433837891,44.616185639540156
79444,4.788691864013672,-5.2751802062988284,-2.4471112060546876,45.223398859609105
79509,2.097887420654297,-6.9407666015625,-5.097050628662109,29.429995933660408
79575,12.487781524658203,-0.57240966796875,-3.2180081176757813,50.05193386655308
79642,20.34090087890625,35.51424774169922,12.138707427978517,42.12746764784072
79708,3.1458581542968753,21.579874420166018,10.36414764404297,49.78217049111216
79775,-3.3956886291503907,10.70768325805664,3.7309913635253906,47.16212088883665
79847,-6.751709747314454,3.4961297607421877,4.726421356201172,43.13044233082023
79909,-5.558091888427735,3.7579353332519534,1.8431172180175783,57.98812871427592
79975,2.2908361816406253,12.17957244873047,5.614225158691407,65.48035695758233
80042,-0.11421249389648438,24.801175689697267,17.587825927734375,52.379607420676955
80109,-2.6934988403320315,10.775342559814455,4.9404762268066404,46.10574998959417
80175,5.495072937011719,-0.5466632080078125,-2.470312957763672,42.513705054967026
80244,3.1757958984375003,-8.879385223388672,-5.416336669921876,34.58939861890326
80309,6.161636810302735,-5.245691528320313,-4.593348083496094,49.26481357476543
80375,22.931563568115237,20.09990203857422,7.248975677490234,57.00012795337337
80442,12.769795074462891,26.164690246582033,17.953066406250002,54.0953920694032
80509,0.2692900085449219,16.900305633544924,7.832013244628906,41.08734108602364
80575,-6.393354949951172,4.541555786132813,7.037465515136719,49.845228128595224
80642,-6.922953643798828,0.8461903381347656,-0.1167572021484375,50.66843787582751
80709,-0.29488677978515626,7.193890228271485,7.9944255065917975,67.36209037855458
80775,-2.302511901855469,23.866369628906252,15.935711517333985,54.49913247288773
80842,-0.6173162841796875,12.425211639404298,6.7792524719238285,53.82213421814144
80909,-2.2532643127441405,3.2205528259277347,-3.250640258789063,40.92264360788348
80975,7.279661865234376,-4.11703857421875,-2.2544618225097657,40.10850957373923
81043,1.5801141357421875,-5.508095855712891,-3.65719482421875,41.4795443093082
81109,11.173963623046875,0.1790277099609375,-1.249002685546875,46.30671906394192
81175,23.6484228515625,27.933711547851566,23.8879248046875,47.59849077610011
81242,1.2769944763183594,20.270547180175782,12.546160125732422,51.58926105856552
81309,-4.806055755615235,8.568631439208986,4.1147932434082035,43.21991747547265
81375,-6.2614791870117195,0.5525010681152344,3.4423915100097657,50.48764102908446
81442,-6.103557586669922,5.077591094970703,1.8203645324707032,53.17384219137274
81509,2.2873933410644534,18.26292205810547,13.98975814819336,53.01008280397
81575,0.87897216796875,19.86713607788086,22.448069000244143,53.19145633502615
81642,1.962568817138672,7.159461822509766,1.4283297729492188,55.095828676170974
81709,6.391408996582031,-3.464096374511719,-6.4250889587402344,38.95974732359064
81775,3.7645216369628907,-7.591463470458985,-6.712940368652344,38.95477796275715
81843,9.953701171875,-3.6682717895507815,-1.9522402954101563,48.605416279653596
81909,19.09249694824219,18.370997314453128,9.14463363647461,54.06907897689766
81975,17.367334442138674,26.68336166381836,17.21734634399414,59.84500309738579
82044,1.384021911621094,15.640225982666017,9.711205444335938,47.070418890764486
82109,-6.614145812988282,3.6253111267089846,2.890489196777344,35.16667559099043
82175,-6.19875961303711,-0.757873992919922,2.313139801025391,36.602012013806814
82244,-3.144061889648438,6.711892547607422,0.9928852844238282,57.04558870595575
82309,-4.110901336669922,18.942059783935548,15.115716705322267,51.06812815808623
82375,-0.33215927124023437,16.291222229003907,10.959609375000001,51.50341897520264
82444,-2.2061123657226562,4.830904083251953,0.4004173278808594,37.83117137490467
82509,4.760251007080078,-3.5473233032226563,-2.2062620544433593,33.265406685165615
82575,3.8943017578125003,-5.6838304138183595,-4.673581237792969,41.79034465932006
82642,9.164691925048828,-1.6220269775390626,-4.3948608398437505,39.215824403934164
82708,17.445471954345702,31.540610961914066,13.726156311035156,47.17121047606533
82775,-0.18591339111328126,19.953955535888674,13.824352111816406,53.36899809359534
82844,-3.6116894531250003,8.0616357421875,2.571203155517578,43.5884819009608
82909,-6.651867370605469,0.07559280395507813,4.436174926757813,47.484051199784304
82975,-8.335416412353515,1.3736933898925783,2.3691233825683593,48.64807629026147
83043,-0.9154962158203126,13.571228485107422,10.108479309082032,48.89223242222631
83109,-4.463118896484375,23.150857543945314,15.522720336914062,47.777384745262445
83175,-8.36295913696289,11.291169891357422,0.4989125061035157,47.93126566118542
83244,1.6422349548339845,0.7265890502929688,-0.1776805114746094,48.45308931835884
83309,6.237229614257813,-4.972060546875,-1.869163055419922,54.30980772790971
83375,2.6304798889160157,-4.734654235839844,-5.728287963867188,63.579807502631255
83442,14.858701171875001,8.333470458984376,1.573677520751953,62.44054596145087
83509,19.425254974365235,33.15380630493164,10.637628936767578,55.3370852323986
83575,-0.18830841064453127,18.01578598022461,8.888216857910157,47.98063364109119
83642,-7.926167449951172,5.729934539794922,5.162763977050782,51.71860961751824
83709,-7.020700378417969,1.5365547180175783,1.213077392578125,52.65753851131688
83775,-1.5910414123535157,9.818232879638673,2.540966033935547,48.329748905302054
83841,-0.8074209594726562,20.307071228027343,14.843283233642579,58.38337076841121
83909,-2.467768249511719,13.060789947509766,8.020770721435547,60.42897471842794
83975,0.17887802124023439,4.111350402832032,-0.3243754577636719,58.52334797898165
84041,4.3649230957031255,-4.315675506591797,-1.0711724853515625,53.87512621760897
84109,2.492167510986328,-5.152884521484375,-4.185596008300782,46.771231201262644
84175,10.371033325195313,7.4095916748046875,-2.5583299255371097,48.17386855691992
84242,15.633789367675782,27.425518341064453,9.009913787841798,50.3181227133037
84309,2.8324099731445314,20.066671142578127,15.31420394897461,53.935436170677555
84375,-2.688110046386719,11.064391479492189,4.539909210205078,48.256727321935585
84442,-7.13521224975586,1.2278965759277345,0.32826736450195315,53.238108560358725
84509,-8.002957763671876,-0.7435038757324219,3.229683837890625,66.06484551540086
84575,2.8445347595214847,14.572945404052735,9.722132720947267,54.152789169473785
84642,-4.671784973144532,21.451591186523437,18.195113067626956,64.49141786971354
84709,-3.1961535644531254,12.696297912597657,6.136189727783203,61.39583161826357
84775,1.8279986572265625,0.8376580810546875,-1.2187655639648438,60.39908021716312
84848,5.977669372558594,-6.8142796325683594,-4.9952622985839845,65.29070988747485
84909,3.9628591918945313,-5.117707672119141,-4.458029479980469,56.08017632967325
84975,12.029584350585939,15.480358428955078,6.540349273681641,63.036385530093796
85042,22.308409423828127,33.41097152709961,18.014139404296877,53.39437527759205
85109,0.07095245361328126,17.72988052368164,7.626340942382813,49.34412593848169
85175,-6.790030059814454,0.4233197021484375,6.190526733398438,63.8491209899381
85241,-7.068451080322266,-2.2466780090332032,2.1544697570800784,67.45738535961893
85309,-6.191275177001954,3.825744323730469,0.7515870666503907,59.19435322681754
85375,-0.6074368286132813,14.932946777343751,15.456258544921877,47.90665093456646
85442,-2.5213568115234377,17.96788558959961,13.831088104248048,55.280755649782655
85509,-2.880759429931641,13.31286575317383,3.280128936767578,52.492839844809254
85575,4.594994659423828,0.4453239440917969,-4.0406973266601565,45.455792385618764
85642,6.402485961914063,-4.301754455566407,-5.711822204589844,52.4998304822907
85708,9.858199768066406,2.6827212524414064,-2.8734246826171876,59.38018596559564
85775,5.866001586914063,12.55993148803711,16.977994079589845,52.56845178041475
85842,3.4708323669433594,10.072254638671875,34.995875701904296,61.33520705940629
85909,-2.1339624023437502,8.136779479980468,8.829389190673828,62.96739321073214
85975,-3.2822245788574222,1.6346008300781252,0.077838134765625,48.720396679732865
86041,-2.7400520324707034,0.6390211486816406,1.0873388671875,35.482665451707454
86109,-4.545896759033203,3.9212457275390626,6.836433563232422,31.922886125681202
86175,-7.045249328613282,7.250921630859375,13.37139404296875,44.788405484818014
86241,-2.8612998962402347,7.800129547119141,16.384927368164064,50.35613824013973
86309,-0.1333726501464844,5.599855041503907,8.722810821533203,43.53088764833949
86375,2.4102877807617187,0.9518705749511719,0.7253915405273438,52.099785506946354
86441,3.1518457031250002,0.09026229858398438,1.8685643005371095,50.500973537148056
86509,4.0882983398437505,0.7453001403808595,13.667178955078125,41.30687493982032
86575,1.51365234375,8.97413818359375,16.640146636962893,56.46922021300149
86642,2.3035597229003906,13.8288427734375,14.095438385009766,58.66079891773924
86709,-1.0473719787597657,6.957382049560548,4.007616119384766,52.79536909953785
86775,-3.2145652770996094,0.3561094665527344,3.49433349609375,47.76672133218682
86842,-2.692151641845703,1.7010626220703127,1.2163705444335937,34.24881636631067
86909,-4.298760681152344,5.739065551757813,10.743758239746095,48.676560144155545
86975,-0.8165519714355469,10.290800170898438,19.561920776367188,53.37477231725004
87042,-3.842659149169922,10.19604721069336,13.562696228027345,46.93551085595914
87109,3.1201116943359377,1.9122734069824219,5.9020765686035155,42.695596400388204
87175,3.464096374511719,-1.793570251464844,-1.9670594787597657,42.828712453352054
87241,4.514761505126954,-1.4507830810546876,-1.2662168884277345,50.07811765597335
87309,11.61195281982422,-3.8107754516601564,2.478396148681641,46.21716216647311
87375,12.718900909423828,-1.1708651733398439,20.451371154785157,53.28275604985013
87442,5.633834381103516,10.284064178466798,32.38994476318359,49.48329815857551
87509,-11.605067138671876,4.331243133544922,15.707286529541017,58.46332781536457
87575,-13.415701904296876,2.8575576782226566,8.035589904785157,53.79211213929926
87641,-4.179458770751953,6.799161071777344,4.306394805908203,48.104475951231166
87709,3.660188598632813,17.281712493896485,13.53949447631836,54.12052101808978
87775,5.3422407531738285,15.96325424194336,17.886754302978517,50.54881054862772
87842,1.0708731079101563,5.308860168457032,0.4592449951171875,63.73475667782634
87909,6.3424607849121095,-2.875071258544922,-0.9557624816894532,56.32324655202687
87975,3.2130683898925785,-5.368436279296875,-3.3949401855468753,45.20549032248027
88042,8.65365463256836,-2.9951216125488282,-6.921157379150391,44.78883804186282
88108,22.101988677978518,20.449275512695312,8.79885269165039,57.3783962521713
88175,13.60416000366211,23.702759857177735,20.266804962158204,50.401036832277754
88242,-2.4674688720703126,12.812156982421875,3.799698486328125,43.59000227374686
88309,-7.099137268066406,2.748284912109375,4.457730102539062,44.42307271299053
88375,-4.737498321533203,2.0212467956542968,0.9349557495117188,57.96584045757968
88442,-0.93166259765625,10.915750579833984,0.6676116943359376,53.20281332773899
88509,-1.0529104614257814,21.808449096679688,26.87735824584961,49.22060795592691
88575,-4.56056625366211,7.556585998535157,8.682245178222656,48.94183095040831
88642,-0.295784912109375,0.5345384216308594,-2.0456460571289066,51.698242662514716
88708,6.578819274902344,-5.913602600097657,-4.987777862548828,40.690017170456
88775,2.6565257263183595,-4.991969146728516,-6.135890350341797,44.19889691073568
88842,22.03747283935547,18.760487365722657,2.9102481079101565,62.78985315234911
88909,18.55271942138672,32.77644104003907,14.393917694091797,56.97698267083655
88975,-1.7381854248046875,15.797698516845704,10.838660888671875,46.67751719421233
89042,-7.775580596923828,6.622079315185547,5.074297943115234,43.201878434032636
89109,-5.614674224853516,1.0942245483398438,2.7107130432128907,44.23147531977244
89175,-3.4152978515625003,5.7242463684082034,-1.9672091674804688,42.925661709640124
89242,-2.911146240234375,22.23236755371094,17.79529449462891,44.54921045340151
89309,0.5031037902832032,11.537407836914063,12.814252624511719,43.5822047310868
89375,-2.2745201110839846,6.173611907958985,0.24638763427734375,43.52298314534366
89442,5.038372650146485,-0.4331991577148438,-1.7814454650878908,36.43452676486187
89509,6.259832611083985,-4.5649072265625,-1.9477496337890625,32.80578370368077
89575,8.373287658691407,0.012424163818359375,-5.4250186157226565,40.4945061813155
89642,17.330511016845705,22.53997787475586,3.727398834228516,37.07314633588708
89709,12.119397583007814,27.032286071777346,15.198494567871094,49.36096337767455
89775,-3.612437896728516,13.54383544921875,2.2141955566406253,42.67992590365583
89843,-5.289700012207032,1.4904505920410156,9.078321533203125,44.80294460003006
89909,-6.364914093017578,0.7291337585449219,2.0381616210937503,40.16531940957265
89975,-0.7360194396972657,10.24304946899414,4.350103912353516,44.23098352645467
90042,-5.773344268798828,21.882545013427734,18.920803985595704,50.828356163580295
90109,-2.840193786621094,11.50896697998047,6.437812500000001,50.256744494103444
90175,6.085894317626954,2.998564453125,-2.641556854248047,43.281960599485494
90242,6.2104353332519535,-3.5953733825683596,-5.141957244873047,37.29083757043612
90309,-1.7440232849121096,-3.8248461914062504,-5.754633178710938,34.31846045698725
90375,10.605146484375,8.629105682373048,4.635560302734375,38.695837077134236
90442,20.773950347900392,31.949710235595706,13.079501037597657,47.77897838016738
90509,1.9624191284179688,17.34817428588867,15.439343719482423,53.31627693885786
90575,-3.935915222167969,8.290509796142578,0.4944218444824219,44.9572467799798
90641,-5.389542388916016,0.08083190917968751,4.9494575500488285,41.55700327559317
90709,-7.023245086669922,0.10433303833007813,2.205962677001953,44.93081452734428
90775,-0.7490423583984376,14.782210235595704,7.8797639465332034,46.30895481421989
90842,0.7321275329589844,24.826323394775393,16.11174545288086,50.27573833416354
90909,-2.8372000122070316,10.515033874511719,5.819747772216797,46.86028188926378
90975,5.787265319824219,1.4326707458496095,-0.08008346557617188,41.138765326310526
91043,5.594316558837891,-4.259691925048829,-4.240531768798828,44.01159199023789
91109,0.12903167724609377,-2.164947967529297,-5.64551010131836,41.7070165581607
91175,11.794123992919923,22.34882537841797,5.665568389892578,58.2602683319849
91242,6.2797412109375,20.20139099121094,17.674795074462892,52.8388667907867
91309,-0.798739013671875,14.829960937500001,4.165837097167969,42.896112463483
91375,-3.5775604248046875,7.354356536865235,1.828298034667969,34.25534220498263
91443,-7.216942291259766,2.1179457092285157,4.698279876708985,31.580607939366054
91509,-3.177292785644531,5.632337493896484,6.686744842529297,41.27752515832973
91575,-2.0782781982421876,17.424814910888674,24.428301086425783,39.70811610872518
91641,6.5943869018554695,15.630196838378907,16.212336273193362,59.5034976091997
91708,6.556216278076172,8.070467376708985,1.6331039428710938,58.95393813138489
91775,5.8212446594238285,0.030237121582031252,-1.8678158569335939,53.754532730724804
91843,3.766916656494141,-1.809287567138672,-4.9267048645019536,36.39287225910237
91909,3.4317636108398437,0.9696835327148438,-3.8938526916503906,43.74528394381243
91975,4.623285827636719,18.076260223388672,7.699838104248047,45.73277837464058
92042,13.248200225830079,25.557852172851565,15.962505798339844,55.53634267233082
92109,3.799399108886719,12.195140075683595,8.359516296386719,46.90939947436014
92175,-0.8184979248046875,2.749332733154297,-2.8014244079589847,41.29367595722986
92244,-3.683090972900391,-1.4647041320800782,-1.2031979370117187,41.60468531119037
92309,-3.855831756591797,2.8241770935058597,2.993624725341797,38.32445041174111
92375,-10.063273315429688,16.10740447998047,13.853840789794923,56.490260688023575
92442,5.897885284423828,24.430845794677737,37.03119323730469,62.791267053174884
92509,6.657405853271484,14.168486480712891,10.095905456542969,66.04544311030331
92575,3.156486053466797,3.4590069580078127,-0.9186396789550781,54.768895692076846
92641,3.9739361572265626,-3.5212774658203125,-6.102210388183594,44.26169547035326
92709,0.42661285400390625,-7.983647918701172,-4.146527252197266,40.634084249759454
92775,3.4084121704101564,-3.8035903930664063,1.2326866149902345,64.40911442354901
92842,36.67912536621094,38.18649078369141,13.575868835449219,61.567825900089076
92909,2.103725280761719,22.63488052368164,10.300829315185547,49.64344500303995
92975,-2.851420440673828,13.41106155395508,1.009650421142578,54.68959932877675
93043,-6.779551849365235,6.512058105468751,1.8410215759277344,49.63060247024461
93109,-5.170996856689453,7.621850280761719,1.5358062744140626,56.38909370879138
93175,3.820954284667969,14.740596771240234,12.69255569458008,49.12232687846156
93242,-0.43200164794921875,23.962769165039063,18.975440368652343,49.360107957152096
93309,-2.385439453125,6.474935302734376,0.29907806396484377,50.11938190677952
93375,-0.5138813781738282,-0.4915777587890625,-3.4682876586914064,43.85320224200911
93443,7.758665771484376,-5.5675222778320315,-4.382736053466797,40.69742076041645
93508,5.818999328613281,-4.762047271728516,-5.179229736328125,49.30057124920842
93575,15.174095306396485,6.9166667175292975,3.0591883850097656,55.21073981293913
93642,26.308990173339843,42.84016342163086,17.343983001708985,53.431051710533566
93709,-0.8150550842285157,17.175732879638673,10.303972778320313,46.60960291776084
93775,-7.803871765136719,4.535119171142578,2.367327117919922,42.53483392087014
93843,-7.670499114990235,-1.9431092834472656,4.253704376220703,54.39364277735001
93909,-4.11703857421875,4.949307861328125,4.687352600097657,46.43107077494116
93975,-3.835324401855469,18.41725112915039,13.241015167236329,53.96087706856851
94043,-2.1333636474609374,17.384099578857423,12.723241882324219,55.74013895600998
94109,1.978136444091797,5.7401133728027345,-1.0702743530273438,50.460579184061025
94175,3.995790710449219,-6.13169906616211,-5.015470275878907,41.23263475902825
94243,4.291725311279297,-6.793023834228516,-5.441484375,46.530966864691756
94309,20.569176177978516,12.156221008300783,-2.8466304016113284,53.23730488945519
94375,16.00112548828125,26.773174896240235,33.09737365722656,53.61446397551359
94444,-2.1999751281738282,16.72292449951172,11.499835968017578,53.25028964512501
94509,-6.982380065917969,4.693190460205078,3.041076049804688,54.21029422903054
94575,-7.897277526855469,0.5942642211914063,2.512525177001953,62.08566842962922
94642,-6.218069458007813,3.8166133117675782,5.60000473022461,65.66750519232235
94708,3.7103343200683594,14.145284729003906,12.553943939208985,49.89712272920607
94775,-4.293371887207032,20.590132598876956,12.80182846069336,57.51708565899611
94871,2.5339306640625003,2.9957203674316406,-0.044756927490234376,50.03137276060415
94909,4.9671208190917975,-3.703298950195313,-1.1044033813476564,53.77559394278101
94975,5.344186706542969,-5.7507412719726565,-4.013603668212891,48.40752034831801
95042,12.467124481201173,2.302362213134766,-6.288722534179688,53.27467239033798
95109,7.559430084228516,27.20682312011719,14.985936584472658,53.894070952311274
95175,4.918022918701172,22.032383422851563,23.48840560913086,57.496072444721776
95243,-7.296127624511719,7.045399017333985,4.145479431152344,48.978908862865474
95309,-7.0766839599609375,-1.2699591064453126,7.127578125,47.50847675384275
95375,-7.9204792785644536,0.6499484252929688,2.963686981201172,59.60334236339343
95443,2.3833438110351564,12.608879699707032,9.083111572265626,53.770201491591195
95509,-6.406976623535156,21.771326293945314,19.055523834228516,56.22329059489555
95575,-3.7350329589843754,10.332862701416015,4.799469451904297,47.20771020804632
95644,3.8243971252441407,0.37616775512695316,-3.9833665466308594,36.55138434811382
95709,7.510930938720704,-5.154082031250001,-4.751419372558594,54.77707156875201
95775,6.488856353759766,-3.0416748046875,-6.309229888916016,50.128920351129835
95843,9.55897201538086,22.89638671875,7.377258911132813,48.254845391048484
95909,16.98023941040039,31.40544204711914,20.876187744140626,53.155631346592884
95975,-3.4790652465820315,13.60939910888672,8.288264465332032,54.11050373509391
96044,-6.128256225585938,4.531826019287109,3.0994546508789065,48.51044207104246
96109,-5.131329345703125,1.0996133422851564,1.8239570617675782,62.36661939512017
96175,-2.8921357727050783,5.248086547851563,4.143982543945313,61.94172044022699
96243,-12.577445068359376,21.565803680419922,18.771564331054687,51.59383692121611
96309,-3.878883819580078,15.454162902832032,12.308604125976563,55.31660260989038
96375,1.979333953857422,4.399052124023438,-1.2981005859375,53.44400134147585
96441,6.970704345703125,-5.1783316040039065,-2.8762687683105472,41.397217048152044
96509,1.8137782287597657,-5.699398040771484,-6.135441284179688,59.51846811681384
96575,15.612832946777344,11.375444641113281,-0.4689747619628907,58.51818288645899
96641,7.888445892333984,32.82973022460938,13.697266387939454,50.65654393514962
96709,-3.105142822265625,17.56642044067383,11.526181182861329,56.32913618356768
96775,-3.1759455871582034,4.600533142089844,3.683390350341797,61.76643041431617
96841,-4.464915161132812,-1.6122972106933595,4.102668457031251,57.66212757849207
96909,-6.32045654296875,-0.5566923522949219,1.948198699951172,55.98295763843848
96975,-3.4793646240234377,10.901380462646484,3.8290374755859378,58.65920840840364
97042,3.0023066711425783,26.177264099121096,16.097225646972657,56.47505220497385
97109,1.790277099609375,12.189451904296876,8.027506713867188,51.94392222751793
97175,5.523813171386719,3.1063403320312504,-3.247197418212891,43.086924422012565
97242,3.961212615966797,-1.9297869873046876,-5.778433685302734,41.29915357504422
97309,5.6080879211425785,-0.8638536071777344,-3.8636155700683594,45.34114987643807
97375,5.198838958740235,17.040713653564453,4.550237731933594,51.95429142457063
97441,13.175301818847657,25.95288070678711,14.407689056396485,57.422733243533145
97509,0.6984475708007812,14.240636444091798,-3.716621246337891,50.2519113081339
97575,-3.502566375732422,1.7375866699218752,1.2168196105957032,57.19342061331497
97643,-6.035149841308594,-1.334175567626953,5.281766510009766,69.2079731664767
97708,-2.882256317138672,3.1510972595214843,0.25956024169921876,69.11915603380908
97775,-4.791386260986329,14.83041000366211,8.21342010498047,59.048464088290245
97841,12.747491455078126,31.209649200439454,17.688117370605468,60.498709122062465
97909,0.32826736450195315,8.092172241210937,5.936504974365235,48.935287446627605
97975,5.941594390869141,1.5847544860839844,-2.9925769042968753,40.488300865283506
98043,5.287155303955078,-3.646117858886719,-4.757107543945312,44.015728456764464
98109,3.379073181152344,-2.9750633239746094,-5.190157012939453,47.6025657537275
98175,12.20352264404297,17.827327880859375,6.646927642822266,55.424033714309154
98241,20.718415832519533,34.44741622924805,15.440840606689454,53.89384063208192
98309,-3.5916311645507815,11.559112701416016,2.199526062011719,62.26123337473424
98375,-6.233487396240235,1.8842816162109377,1.368603973388672,60.68032532442409
98443,-6.591991882324219,-0.12828323364257813,3.033292236328125,60.42855370914924
98509,-3.5497183227539066,7.6790313720703125,3.5015185546875003,70.37009255341461
98575,-10.63388671875,20.84804626464844,14.438375244140627,59.63458204953017
98641,1.6124468994140626,19.205960998535158,12.612771606445314,63.42939972684274
98709,-0.737666015625,7.886499938964844,2.240391082763672,55.25754654591583
98775,6.591093750000001,-1.9484980773925782,-0.1375639343261719,49.222686118862065
98844,2.2564077758789063,-4.631369018554688,-7.022796020507813,57.94650441035603
98909,9.488468627929688,1.4949412536621094,-6.812932434082032,67.48829455850286
98975,9.160650329589844,23.095772094726563,12.915292510986328,58.84545586963813
99041,10.376272430419922,27.289301605224612,16.221167907714843,53.595015730971205
99109,-4.661306762695313,10.44273422241211,0.3345542907714844,55.097319580840995
99175,-5.946384429931641,-0.91250244140625,1.6173866271972657,53.54901359204298
99244,-9.066945190429688,-0.8972341918945312,0.8159532165527345,59.46281756222993
99309,-0.621507568359375,10.398576049804689,7.157665557861328,55.51746339427118
99375,-7.434440002441407,20.801792449951172,24.052582397460938,52.45660697520259
99442,-1.6079562377929688,13.103750610351563,10.890453186035156,51.55187197769998
99509,3.1298414611816407,3.4359548950195316,1.4061758422851562,53.108780340308996
99575,7.971373443603516,-3.005300445556641,-4.157903594970703,55.24093503648153
99643,2.9958700561523437,-3.1856753540039064,-8.846603393554688,40.06294857981385
99709,17.49606674194336,9.40090072631836,5.119953002929687,49.12854167204205
