relative_time,AccX,AccY,AccZ,DecibelSource
0,0.085023193359375,-0.4935237121582032,10.062674560546876,16.532125137753436
29,0.1866618347167969,-0.5489085388183594,10.004295959472657,15.797835966168101
96,0.1047821044921875,-0.2329156494140625,9.830657043457032,13.222192947339193
164,0.06870712280273437,-0.38664596557617187,9.838590545654297,12.78753600952829
229,0.1872605895996094,-0.5242098999023438,9.96852035522461,11.139433523068368
296,0.0844244384765625,-0.32302825927734374,9.885742492675782,14.471580313422193
364,0.1585203552246094,-0.39622604370117187,9.806257781982422,12.552725051033061
430,0.11720626831054688,-0.4417314147949219,10.015372924804687,16.62757831681574
496,0.10163864135742189,-0.3362008666992188,9.846673736572265,33.93575203269587
565,0.1490899658203125,-0.43544448852539064,9.894125061035156,46.3811969986024
630,0.10089019775390626,-0.4481680297851563,9.930349731445313,38.32253370197008
696,0.17947677612304688,-0.33485366821289064,9.826016693115236,37.68712080377664
765,0.09729766845703125,-0.444276123046875,9.84158432006836,25.658478186735177
830,0.15642471313476564,-0.4122427368164063,9.91867401123047,31.306553490220303
896,0.1359173583984375,-0.365240478515625,9.827064514160156,14.62397997898956
965,0.10942245483398438,-0.40969802856445314,9.894873504638673,14.913616938342727
1029,0.1490899658203125,-0.4207749938964844,9.890831909179688,13.80211241711606
1096,0.11630813598632814,-0.37511993408203126,9.847571868896486,23.201462861110542
1165,0.14474899291992188,-0.4282594299316406,9.895921325683593,44.010039798994825
1231,0.12020004272460938,-0.41463775634765626,9.900561676025392,31.379867327235313
1295,0.1215472412109375,-0.39308258056640627,9.821376342773439,32.73695587930092
1365,0.14654525756835937,-0.4105961608886719,9.87122268676758,36.859207921945355
1432,0.11750564575195313,-0.3818559265136719,9.926906890869141,14.913616938342727
1496,0.14474899291992188,-0.4285588073730469,9.824519805908203,46.61613943248086
1566,0.118553466796875,-0.42541534423828126,9.900411987304688,41.893780058420305
1631,0.135318603515625,-0.3852987670898438,9.852062530517578,29.10090545594068
1696,0.11810440063476563,-0.42272094726562504,9.8243701171875,32.42789809478677
1766,0.13397140502929689,-0.3879931640625,9.953701171875,25.477747053878225
1830,0.12663665771484375,-0.4004173278808594,9.853409729003907,31.408221801093106
1896,0.1239422607421875,-0.43304946899414065,9.858199768066406,32.16957207361097
1965,0.11930191040039063,-0.41987686157226567,9.908046112060548,36.41870545476313
2030,0.1454974365234375,-0.3598516845703125,9.894125061035156,28.432327780980096
2095,0.11481124877929688,-0.4454736328125,9.807155914306641,33.57172257723033
2165,0.14400054931640627,-0.3975732421875,9.949509887695314,33.70328007779511
2230,0.11945159912109375,-0.3802093505859375,9.82526824951172,28.779469516291883
2295,0.13906082153320312,-0.43200164794921875,9.83724334716797,25.865873046717546
2364,0.12693603515625002,-0.4451742553710938,9.897268524169922,17.708520116421443
2430,0.14280303955078125,-0.3405418395996094,9.900112609863282,12.552725051033061
2495,0.11720626831054688,-0.44307861328125003,9.867181091308595,26.11723308007342
2565,0.1442999267578125,-0.427510986328125,9.909842376708985,21.78976947293169
2630,0.13786331176757813,-0.3728746032714844,9.84637435913086,35.47282307963303
2695,0.12558883666992188,-0.43065444946289066,9.860295410156251,41.75946470095546
2764,0.140108642578125,-0.44442581176757817,9.893675994873048,42.68928822432613
2831,0.12304412841796876,-0.3538641357421875,9.879605255126954,28.325089127062363
2895,0.13442047119140627,-0.43664199829101563,9.816137237548828,35.9073040579269
2964,0.13995895385742188,-0.4303550720214844,9.782606964111329,16.532125137753436
3032,0.12484039306640625,-0.39787261962890624,9.835596771240235,25.365584425715298
3095,0.16136444091796875,-0.34982254028320314,9.717642059326172,13.010299956639813
3165,0.12364288330078126,-0.4113446044921875,9.869276733398438,23.483048630481605
3229,0.13247451782226563,-0.4255650329589844,9.811197509765625,27.39572344450092
3295,0.11990066528320313,-0.3929328918457031,9.871671752929688,32.61024833992397
3364,0.11720626831054688,-0.4387376403808594,9.816286926269532,25.03790683057181
3432,0.17408798217773438,-0.3752696228027344,9.83829116821289,19.9563519459755
3495,0.08607101440429688,-0.43544448852539064,9.881551208496095,14.14973347970818
3565,0.19175125122070313,-0.39966888427734376,9.874665527343751,10.79181246047625
3629,0.09909393310546875,-0.4182302856445313,9.885742492675782,13.617278360175929
3695,0.1622625732421875,-0.40191421508789066,9.876761169433594,13.617278360175929
3764,0.1327738952636719,-0.4303550720214844,9.874964904785157,9.542425094393248
3832,0.11211685180664063,-0.4002676391601563,9.900711364746094,15.185139398778876
3895,0.1634600830078125,-0.44158172607421875,9.847122802734376,10.79181246047625
3965,0.09550140380859376,-0.41194335937500004,9.889035644531251,15.797835966168101
4030,0.16136444091796875,-0.39622604370117187,9.819430389404298,40.10554351540322
4095,0.10837463378906251,-0.4255650329589844,9.852062530517578,47.8509482524169
4165,0.13861175537109377,-0.41029678344726567,9.860594787597657,48.637925959129404
4230,0.16196319580078125,-0.39966888427734376,9.863588562011719,42.28323349308016
4295,0.10163864135742189,-0.43424697875976564,9.850415954589844,42.062590352092826
4369,0.16495697021484376,-0.3986210632324219,9.886490936279298,47.754138242740545
4430,0.10328521728515626,-0.4004173278808594,9.86508544921875,49.02247725228436
4495,0.15672409057617187,-0.4358935546875,9.810299377441407,46.855626111582296
4565,0.12259506225585938,-0.3875440979003906,9.878557434082031,40.70813359702716
4630,0.11151809692382814,-0.4046086120605469,9.860145721435547,25.31478917042255
4695,0.15612533569335937,-0.4381388854980469,9.880204010009766,22.92256071356476
4765,0.09116043090820312,-0.3974235534667969,9.906848602294922,41.26228844606424
4831,0.16256195068359375,-0.3908372497558594,9.807305603027345,41.81414796254284
4895,0.116158447265625,-0.4197271728515625,9.880503387451173,41.04384671287883
4964,0.12648696899414064,-0.4002676391601563,9.921667785644532,40.2771646220899
5029,0.1429527282714844,-0.415535888671875,9.841734008789063,36.591552809406295
5095,0.12499008178710938,-0.41388931274414065,9.854906616210938,37.35997884091794
5165,0.1471440124511719,-0.39951919555664067,9.865235137939454,48.306912963176664
5230,0.13202545166015625,-0.4071533203125,9.849368133544923,36.29613445378183
5295,0.1197509765625,-0.4302053833007813,9.893376617431642,21.78976947293169
5365,0.144898681640625,-0.398770751953125,9.881251831054689,15.563025007672874
5430,0.12828323364257813,-0.4164340209960938,9.857301635742187,15.185139398778876
5495,0.1285826110839844,-0.42691223144531254,9.91388397216797,12.552725051033061
5565,0.13397140502929689,-0.41029678344726567,9.875413970947266,13.617278360175929
5630,0.124541015625,-0.415535888671875,9.850415954589844,13.617278360175929
5695,0.1279838562011719,-0.4164340209960938,9.914931793212892,16.334684555795864
5764,0.15178436279296875,-0.4079017639160156,9.854607238769532,13.222192947339193
5832,0.12484039306640625,-0.44143203735351566,9.871372375488281,10.79181246047625
5895,0.13651611328125002,-0.4305047607421875,9.868528289794922,39.91048776452676
5965,0.14115646362304687,-0.39428009033203126,9.855804748535157,21.67317334748176
6029,0.12289443969726563,-0.4297563171386719,9.860445098876953,39.59899587865944
6095,0.14864089965820312,-0.4228706359863281,9.890831909179688,25.45307116465824
6169,0.12349319458007812,-0.40505767822265626,9.85071533203125,35.313511645830594
6231,0.1383123779296875,-0.4409829711914063,9.849218444824219,33.69030221809153
6295,0.1335223388671875,-0.4101470947265625,9.87511459350586,28.29303772831025
6365,0.12948074340820312,-0.40206390380859375,9.844727783203126,18.86490725172482
6430,0.13217514038085937,-0.42346939086914065,9.866282958984376,16.62757831681574
6495,0.12603790283203126,-0.41448806762695317,9.901759185791017,15.051499783199061
6565,0.12484039306640625,-0.41209304809570313,9.864337005615235,11.760912590556813
6630,0.13546829223632814,-0.42840911865234377,9.860295410156251,13.617278360175929
6695,0.12708572387695313,-0.4070036315917969,9.889634399414064,14.313637641589875
6764,0.13965957641601562,-0.4056564331054688,9.852212219238282,10.413926851582252
6830,0.12199630737304688,-0.4278103637695313,9.894574127197266,13.222192947339193
6895,0.10074050903320313,-0.4101470947265625,9.907746734619142,19.395192526186186
6965,0.15492782592773438,-0.4197271728515625,9.837393035888672,10.0
7031,0.0999920654296875,-0.42541534423828126,9.914782104492188,12.78753600952829
7095,0.1633103942871094,-0.41029678344726567,9.856852569580079,11.139433523068368
7165,0.128133544921875,-0.4237687683105469,9.877808990478517,14.313637641589875
7231,0.12768447875976563,-0.4293072509765625,9.879605255126954,11.760912590556813
7295,0.16420852661132812,-0.4099974060058594,9.84158432006836,10.0
7365,0.10642868041992189,-0.4375401306152344,9.894125061035156,15.68201724066995
7430,0.154478759765625,-0.40805145263671877,9.884544982910157,12.78753600952829
7495,0.12469070434570313,-0.41583526611328125,9.865833892822266,16.334684555795864
7564,0.12289443969726563,-0.43200164794921875,9.877808990478517,12.30448921378274
7633,0.15163467407226563,-0.41074584960937505,9.89861572265625,50.68690389509355
7695,0.11002120971679688,-0.4101470947265625,9.862840118408204,53.32620219565641
7765,0.15163467407226563,-0.4385879516601563,9.860894165039063,54.93272582293295
7831,0.11406280517578125,-0.4174818420410156,9.920021209716797,55.33012841011658
7895,0.14205459594726563,-0.4141886901855469,9.850266265869141,53.96640394167665
7969,0.13846206665039062,-0.4314028930664063,9.870623931884767,55.51760968334942
8030,0.11930191040039063,-0.42107437133789066,9.888287200927735,56.192989454379784
8095,0.14894027709960939,-0.42107437133789066,9.846224670410157,42.966871237724014
8164,0.12109817504882812,-0.43424697875976564,9.878108367919923,36.68199484198662
8230,0.14639556884765625,-0.4087998962402344,9.893077239990236,23.636119798921445
8295,0.12499008178710938,-0.41882904052734377,9.874815216064453,19.590413923210935
8364,0.13741424560546875,-0.4278103637695313,9.888436889648437,34.86713775982486
8429,0.13217514038085937,-0.42586441040039064,9.873168640136718,37.07314633588708
8495,0.14864089965820312,-0.43424697875976564,9.847871246337892,34.53012391121455
8565,0.12768447875976563,-0.4213737487792969,9.89711883544922,20.569048513364727
8630,0.14040802001953126,-0.41987686157226567,9.831255798339845,48.28247314167842
8695,0.14504837036132814,-0.41703277587890625,9.840985565185548,43.95710709035136
8770,0.11271560668945313,-0.42302032470703127,9.924212493896485,26.39486489268586
8831,0.15043716430664064,-0.43065444946289066,9.846224670410157,37.155855518931965
8895,0.11735595703125,-0.41763153076171877,9.89232879638672,43.09012348775426
8964,0.14280303955078125,-0.4132905578613281,9.883048095703126,48.30723362479948
9032,0.14145584106445314,-0.42466690063476564,9.869576110839844,32.7415784926368
9095,0.10568023681640626,-0.439486083984375,9.880054321289062,23.30413773349191
9165,0.15402969360351562,-0.40670425415039063,9.859996032714845,19.73127853599699
9230,0.12034973144531251,-0.43080413818359375,9.875264282226563,15.910646070264994
9295,0.14160552978515625,-0.43005569458007814,9.87661148071289,16.020599913279625
9365,0.14340179443359377,-0.4017645263671875,9.87511459350586,13.979400086720377
9432,0.12409194946289064,-0.4297563171386719,9.855056304931642,13.010299956639813
9495,0.14444961547851562,-0.4387376403808594,9.87840774536133,41.723401736248135
9572,0.12334350585937501,-0.4147874450683594,9.851014709472656,48.26709575282125
9629,0.14265335083007813,-0.4245172119140625,9.864935760498048,37.49427099121749
9695,0.13651611328125002,-0.437091064453125,9.897567901611328,51.081013936056145
9765,0.13157638549804687,-0.4093986511230469,9.877808990478517,46.5646235813453
9830,0.14190490722656252,-0.44158172607421875,9.870025177001954,47.76657607105062
9896,0.1275347900390625,-0.4321513366699219,9.87990463256836,46.03274316614141
9964,0.13861175537109377,-0.40610549926757816,9.85355941772461,46.74971307182042
10030,0.130528564453125,-0.4272116088867188,9.867330780029297,47.93734523287191
10095,0.13022918701171876,-0.43304946899414065,9.898316345214845,41.19519817868195
10165,0.130528564453125,-0.4164340209960938,9.890233154296876,28.2865989653532
10230,0.13681549072265625,-0.4357438659667969,9.866582336425783,35.85235063365775
10295,0.13097763061523438,-0.42616378784179687,9.894873504638673,45.0559761373201
10365,0.135318603515625,-0.4273612976074219,9.86403762817383,49.92716954988114
10430,0.13621673583984376,-0.4291575622558594,9.871971130371094,37.91199246498876
10495,0.12558883666992188,-0.42945693969726567,9.892628173828125,49.98904196612705
10565,0.14205459594726563,-0.41463775634765626,9.841434631347656,37.60573253944394
10629,0.13516891479492188,-0.43843826293945315,9.877210235595703,35.446880223026774
10696,0.1383123779296875,-0.4218228149414063,9.884994049072267,38.644517471581835
10765,0.1454974365234375,-0.42571472167968755,9.871821441650392,37.78946727968617
10831,0.12199630737304688,-0.4324507141113281,9.882000274658203,22.430380486862944
10895,0.14145584106445314,-0.41448806762695317,9.86553451538086,45.433726166886245
10965,0.12963043212890626,-0.4339476013183594,9.87945556640625,51.02642912498875
11030,0.13516891479492188,-0.4279600524902344,9.897717590332032,40.47780924741197
11095,0.13457015991210938,-0.4137396240234375,10.008786621093751,33.80934463330702
11165,0.09071136474609376,-0.4716691589355469,10.025252380371095,39.212701855098125
11230,0.15612533569335937,-0.45026367187500005,9.90624984741211,40.95448326538122
11295,0.08637039184570312,-0.4140390014648438,9.884395294189453,28.773713458697742
11365,0.16435821533203127,-0.45235931396484375,9.795779571533204,30.68927611682072
11430,0.143701171875,-0.41044647216796876,9.907447357177736,32.979792441593624
11495,0.13202545166015625,-0.4381388854980469,9.838590545654297,32.73695587930092
11564,0.18336868286132812,-0.4293072509765625,9.87945556640625,17.853298350107668
11629,0.07903564453125,-0.4400848388671875,9.895921325683593,31.32579847659737
11695,0.18770965576171875,-0.4147874450683594,9.82571731567383,32.506639194632434
11765,0.08068222045898438,-0.4279600524902344,9.918823699951172,26.063813651106052
11830,0.14564712524414064,-0.41927810668945314,9.866881713867189,17.634279935629372
11895,0.13576766967773438,-0.4086502075195313,9.82676513671875,12.30448921378274
11965,0.09819580078125001,-0.44143203735351566,9.840237121582032,12.30448921378274
12030,0.18830841064453127,-0.41314086914062503,9.850865020751954,10.0
12095,0.07574249267578126,-0.4405339050292969,9.915530548095704,11.760912590556813
12165,0.15837066650390627,-0.43125320434570313,9.893077239990236,13.617278360175929
12232,0.14145584106445314,-0.405955810546875,9.888885955810547,19.73127853599699
12295,0.13157638549804687,-0.4125421142578125,9.861343231201172,16.020599913279625
12365,0.1728904724121094,-0.4340972900390625,9.781110076904298,17.558748556724915
12432,0.08861572265625,-0.45116180419921875,9.742640075683594,15.68201724066995
12495,0.1926493835449219,-0.42840911865234377,9.782008209228517,13.617278360175929
12565,0.09520202636718751,-0.4378395080566406,9.826166381835938,10.79181246047625
12630,0.14804214477539063,-0.4463717651367188,9.77407470703125,12.30448921378274
12695,0.12828323364257813,-0.4483177185058594,9.82002914428711,14.62397997898956
12765,0.11091934204101563,-0.4125421142578125,9.838740234375,11.139433523068368
12830,0.1776805114746094,-0.45640090942382816,9.784852294921876,13.617278360175929
12895,0.09610015869140626,-0.44113265991210937,9.87840774536133,12.30448921378274
12965,0.15552658081054688,-0.42646316528320316,9.83439926147461,14.313637641589875
13030,0.1197509765625,-0.45565246582031255,9.827663269042969,13.424226808222063
13095,0.12005035400390626,-0.44113265991210937,9.866732025146485,9.030899869919436
13165,0.1538800048828125,-0.42167312622070313,9.82571731567383,42.86927784959255
13230,0.11780502319335938,-0.4613406372070313,9.849817199707031,35.78295305120826
13295,0.15597564697265626,-0.4567002868652344,9.857451324462891,27.895807121644257
13364,0.13247451782226563,-0.4189787292480469,9.85400848388672,36.66049738480516
13432,0.12349319458007812,-0.45999343872070314,9.849517822265625,26.739419986340877
13495,0.15552658081054688,-0.4531077575683594,9.878108367919923,19.030899869919434
13565,0.12214599609375,-0.4263134765625,9.882898406982422,15.910646070264994
13630,0.142503662109375,-0.44996429443359376,9.84682342529297,16.532125137753436
13695,0.12439132690429688,-0.45146118164062504,9.876312103271484,10.413926851582252
13765,0.13067825317382814,-0.4249662780761719,9.851014709472656,13.979400086720377
13830,0.13711486816406251,-0.4463717651367188,9.861792297363282,12.041199826559248
13895,0.12768447875976563,-0.45954437255859376,9.873468017578125,10.413926851582252
13969,0.14639556884765625,-0.43649230957031254,9.855355682373048,15.910646070264994
14030,0.12319381713867188,-0.44382705688476565,9.872869262695312,12.78753600952829
14095,0.12723541259765625,-0.446671142578125,9.873468017578125,13.424226808222063
14166,0.14504837036132814,-0.43768981933593754,9.856702880859375,16.532125137753436
14232,0.13082794189453126,-0.444276123046875,9.889035644531251,10.79181246047625
14295,0.13082794189453126,-0.43843826293945315,9.866732025146485,15.68201724066995
14371,0.13412109375,-0.44038421630859376,9.862391052246094,26.766936096248667
14430,0.14744338989257813,-0.4507127380371094,9.880802764892579,12.30448921378274
14496,0.13142669677734375,-0.4400848388671875,9.877659301757813,13.424226808222063
14565,0.13412109375,-0.44786865234375,9.8339501953125,11.760912590556813
14630,0.15612533569335937,-0.3838018798828125,9.593250732421875,17.558748556724915
14696,0.11570938110351563,-0.49172744750976566,9.744436340332031,20.253058652647702
14769,0.154478759765625,-0.4543052673339844,9.838440856933595,13.010299956639813
14830,0.11960128784179688,-0.427510986328125,9.87511459350586,18.19543935541869
14896,0.15088623046875002,-0.4309538269042969,9.807305603027345,17.16003343634799
14964,0.12169692993164063,-0.44502456665039064,9.886790313720704,10.413926851582252
15029,0.147293701171875,-0.39787261962890624,9.911788330078126,18.388490907372553
15096,0.14998809814453126,-0.4029620361328125,9.882000274658203,12.30448921378274
15165,0.11960128784179688,-0.45146118164062504,9.86313949584961,11.139433523068368
15231,0.15822097778320313,-0.3794609069824219,9.897418212890626,13.617278360175929
15295,0.10942245483398438,-0.4219725036621094,9.840536499023438,11.760912590556813
15364,0.14280303955078125,-0.43065444946289066,9.881102142333985,11.139433523068368
15432,0.12963043212890626,-0.41688308715820316,9.891879730224609,12.78753600952829
15495,0.11466156005859375,-0.4231700134277344,9.869725799560547,14.14973347970818
15570,0.15642471313476564,-0.4519102478027344,9.867480468750001,14.14973347970818
15630,0.1251397705078125,-0.4082011413574219,9.903705139160158,12.041199826559248
15695,0.14190490722656252,-0.42586441040039064,9.852810974121095,13.222192947339193
15771,0.14115646362304687,-0.4507127380371094,9.875264282226563,13.80211241711606
15830,0.128133544921875,-0.4159849548339844,9.867181091308595,12.78753600952829
15895,0.14340179443359377,-0.42152343750000004,9.847272491455078,9.542425094393248
15969,0.12768447875976563,-0.437091064453125,9.877808990478517,21.702617153949575
16029,0.1389111328125,-0.4087998962402344,9.877359924316407,14.313637641589875
16096,0.13457015991210938,-0.4272116088867188,9.875413970947266,23.979400086720375
16166,0.13861175537109377,-0.4381388854980469,9.897268524169922,15.051499783199061
16231,0.144898681640625,-0.42167312622070313,9.866881713867189,12.30448921378274
16296,0.11481124877929688,-0.425115966796875,9.870923309326173,13.222192947339193
16371,0.14115646362304687,-0.42885818481445315,9.879605255126954,17.075701760979364
16429,0.12424163818359375,-0.4201762390136719,9.86119354248047,13.424226808222063
16496,0.1383123779296875,-0.4363426208496094,9.868677978515626,15.185139398778876
16570,0.13546829223632814,-0.42227188110351566,9.890682220458984,12.30448921378274
16630,0.1359173583984375,-0.41269180297851565,9.87122268676758,16.127838567197355
16696,0.13861175537109377,-0.43230102539062504,9.863289184570313,13.222192947339193
16770,0.13442047119140627,-0.41628433227539063,9.87271957397461,12.041199826559248
16832,0.13247451782226563,-0.41688308715820316,9.85879852294922,12.30448921378274
16895,0.13801300048828125,-0.4317022705078125,9.871971130371094,13.222192947339193
16965,0.135318603515625,-0.42122406005859375,9.873168640136718,11.760912590556813
17030,0.13097763061523438,-0.42242156982421875,9.861043853759766,13.010299956639813
17095,0.13726455688476563,-0.42691223144531254,9.887987823486329,12.78753600952829
17166,0.13501922607421876,-0.4218228149414063,9.86553451538086,13.80211241711606
17230,0.13082794189453126,-0.42032592773437505,9.880204010009766,12.30448921378274
17295,0.13082794189453126,-0.42571472167968755,9.89098159790039,11.760912590556813
17371,0.12558883666992188,-0.42346939086914065,9.882898406982422,10.0
17430,0.14594650268554688,-0.43304946899414065,9.862091674804688,14.471580313422193
17495,0.13187576293945313,-0.42227188110351566,9.900861053466798,13.80211241711606
17569,0.1327738952636719,-0.41613464355468754,9.867181091308595,16.334684555795864
17631,0.13247451782226563,-0.4400848388671875,9.878108367919923,15.051499783199061
17696,0.12588821411132814,-0.4132905578613281,9.888736267089845,13.80211241711606
17765,0.13112731933593752,-0.4147874450683594,9.850865020751954,14.471580313422193
17829,0.12439132690429688,-0.42870849609375,9.878707122802735,10.0
17896,0.13322296142578124,-0.42661285400390625,9.870773620605469,16.232492903979004
17965,0.12334350585937501,-0.4189787292480469,9.86553451538086,15.185139398778876
18029,0.13247451782226563,-0.4315525817871094,9.880204010009766,14.62397997898956
18096,0.1387614440917969,-0.42107437133789066,9.884395294189453,15.314789170422552
18170,0.13112731933593752,-0.4182302856445313,9.862391052246094,14.471580313422193
18229,0.135318603515625,-0.4399351501464844,9.879156188964844,15.910646070264994
18296,0.1375639343261719,-0.4195774841308594,9.867630157470703,14.471580313422193
18371,0.14190490722656252,-0.43005569458007814,9.852810974121095,14.14973347970818
18431,0.135318603515625,-0.4375401306152344,9.87661148071289,16.62757831681574
18495,0.13666580200195313,-0.4231700134277344,9.890831909179688,15.051499783199061
18571,0.12469070434570313,-0.4231700134277344,9.867630157470703,13.222192947339193
18629,0.1293310546875,-0.4340972900390625,9.87945556640625,15.440680443502757
18696,0.13965957641601562,-0.4194277954101563,9.877659301757813,16.720978579357176
18764,0.12603790283203126,-0.42107437133789066,9.862391052246094,12.30448921378274
18832,0.1323248291015625,-0.42691223144531254,9.883197784423828,11.760912590556813
18895,0.13307327270507813,-0.41852966308593753,9.865833892822266,12.552725051033061
18964,0.13157638549804687,-0.4243675231933594,9.87271957397461,26.82145076373832
19032,0.13486953735351564,-0.44083328247070314,9.885293426513673,22.430380486862944
19095,0.12633728027343752,-0.42571472167968755,9.886341247558594,22.576785748691847
19170,0.13022918701171876,-0.4245172119140625,9.87945556640625,28.603380065709935
19230,0.13022918701171876,-0.4272116088867188,9.881102142333985,19.030899869919434
19295,0.12484039306640625,-0.4164340209960938,9.878557434082031,15.68201724066995
19369,0.13576766967773438,-0.4333488464355469,9.86837860107422,16.020599913279625
19430,0.13442047119140627,-0.4207749938964844,9.883048095703126,13.010299956639813
19496,0.13157638549804687,-0.4186793518066406,9.878258056640625,13.010299956639813
19564,0.13636642456054687,-0.43604324340820316,9.881850585937501,12.041199826559248
19631,0.13546829223632814,-0.4339476013183594,9.87122268676758,20.253058652647702
19696,0.14025833129882814,-0.4272116088867188,9.8722705078125,19.68482948553935
19771,0.13636642456054687,-0.4279600524902344,9.882149963378907,32.85107029566812
19830,0.13157638549804687,-0.43230102539062504,9.866133270263672,27.774268223893117
19896,0.13427078247070312,-0.4207749938964844,9.862091674804688,14.471580313422193
19964,0.12768447875976563,-0.4228706359863281,9.879305877685548,14.14973347970818
20029,0.13786331176757813,-0.4231700134277344,9.874964904785157,11.139433523068368
20095,0.13067825317382814,-0.4278103637695313,9.855655059814454,13.222192947339193
20164,0.13187576293945313,-0.4237687683105469,9.886790313720704,13.010299956639813
20230,0.13681549072265625,-0.4339476013183594,9.881700897216797,24.712917110589387
20295,0.13995895385742188,-0.42945693969726567,9.888736267089845,21.335389083702175
20365,0.13516891479492188,-0.4221221923828125,9.886191558837892,25.943925503754265
20431,0.13187576293945313,-0.42586441040039064,9.88948471069336,26.324572921847246
20495,0.12783416748046875,-0.4302053833007813,9.883197784423828,14.313637641589875
20565,0.13621673583984376,-0.4263134765625,9.886640625,22.405492482826
20631,0.13636642456054687,-0.437091064453125,9.874066772460939,20.0
20695,0.130528564453125,-0.4290078735351563,9.879305877685548,13.222192947339193
20765,0.1381626892089844,-0.42870849609375,9.884694671630859,20.0
20830,0.13696517944335937,-0.427510986328125,9.881551208496095,17.92391689498254
20895,0.13367202758789062,-0.4305047607421875,9.883197784423828,15.314789170422552
20970,0.1299298095703125,-0.43664199829101563,9.878557434082031,14.313637641589875
21030,0.1359173583984375,-0.427510986328125,9.868528289794922,15.051499783199061
21096,0.14130615234375002,-0.42691223144531254,9.878856811523438,17.558748556724915
21164,0.1327738952636719,-0.425115966796875,9.877210235595703,20.969100130080562
21233,0.13561798095703126,-0.427510986328125,9.872569885253906,15.910646070264994
21296,0.1335223388671875,-0.42870849609375,9.875863037109376,17.634279935629372
21369,0.13397140502929689,-0.4278103637695313,9.877808990478517,12.552725051033061
21429,0.135318603515625,-0.42391845703125003,9.879156188964844,11.46128035678238
21496,0.13187576293945313,-0.43200164794921875,9.901759185791017,14.14973347970818
21571,0.12948074340820312,-0.4336482238769531,9.865684204101562,30.542299098633976
21629,0.1454974365234375,-0.42466690063476564,9.867181091308595,36.535019469629326
21696,0.11391311645507814,-0.43619293212890625,9.871671752929688,28.363241157067517
21765,0.14280303955078125,-0.4328997802734375,9.871522064208985,31.763806922432703
21830,0.124541015625,-0.42945693969726567,9.870923309326173,31.166077439882486
21895,0.14684463500976563,-0.4282594299316406,9.874216461181641,31.089031276673133
21965,0.13711486816406251,-0.42646316528320316,9.857900390625,17.075701760979364
22030,0.12678634643554687,-0.4267625427246094,9.876461791992188,16.334684555795864
22095,0.13846206665039062,-0.4291575622558594,9.870923309326173,30.941215958405614
22166,0.12888198852539062,-0.41882904052734377,9.875413970947266,46.34426885047628
22230,0.13172607421875002,-0.4435276794433594,9.858499145507812,44.28992811848027
22295,0.13906082153320312,-0.4273612976074219,9.862989807128907,48.165263158017396
22364,0.130528564453125,-0.4297563171386719,9.851912841796876,39.79457318097849
22430,0.13696517944335937,-0.42047561645507814,9.837093658447266,42.48365671612721
22495,0.135318603515625,-0.4237687683105469,9.86792953491211,49.164381557361665
22564,0.12708572387695313,-0.42691223144531254,9.914632415771484,48.16837630902035
22631,0.12948074340820312,-0.4528083801269531,9.918823699951172,49.715356053462955
22696,0.13097763061523438,-0.4471202087402344,9.887838134765625,42.03277720892417
22764,0.1454974365234375,-0.4221221923828125,9.838590545654297,31.13943352306837
22832,0.12334350585937501,-0.4237687683105469,9.856852569580079,30.762762554042176
22896,0.14669494628906252,-0.43005569458007814,9.917177124023437,44.07713743162261
22971,0.12618759155273437,-0.44622207641601563,9.948462066650391,43.44411924574547
23030,0.1525328063964844,-0.43185195922851566,9.861642608642578,40.64682566228512
23096,0.13067825317382814,-0.44203079223632813,9.875863037109376,32.71841606536499
23172,0.12364288330078126,-0.43125320434570313,9.914931793212892,40.35109402944576
23229,0.15522720336914064,-0.4177812194824219,9.846224670410157,40.22552084185014
23296,0.11735595703125,-0.42960662841796876,9.889185333251953,36.68665415454492
23366,0.14864089965820312,-0.4263134765625,9.87990463256836,27.39572344450092
23430,0.1327738952636719,-0.4237687683105469,9.883497161865234,16.232492903979004
23495,0.12768447875976563,-0.44607238769531254,9.908794555664063,34.13132050434872
23565,0.154478759765625,-0.4302053833007813,9.890532531738282,46.412063121785216
23630,0.11825408935546876,-0.40894958496093753,9.881700897216797,42.71516344511632
23695,0.14265335083007813,-0.4454736328125,9.89951385498047,47.41057005360599
23765,0.1435514831542969,-0.42810974121093753,9.895921325683593,37.9309160017658
23830,0.14385086059570312,-0.40775207519531254,9.834099884033204,33.477202170340384
23895,0.14085708618164064,-0.4436773681640625,9.846224670410157,41.710825773575266
23966,0.13741424560546875,-0.42691223144531254,9.880952453613281,46.61415109968618
24030,0.140108642578125,-0.4195774841308594,9.864935760498048,45.91887872166869
24095,0.12094848632812501,-0.4459226989746094,9.853409729003907,36.68944734457734
24164,0.1686991882324219,-0.4129911804199219,9.858948211669922,24.409090820652178
24230,0.09849517822265626,-0.42152343750000004,9.852960662841797,38.9707700320942
24296,0.15762222290039063,-0.42167312622070313,9.858050079345704,42.51443535033363
24364,0.11750564575195313,-0.44307861328125003,9.890831909179688,45.9644314118364
24430,0.12528945922851564,-0.42122406005859375,9.873767395019533,42.23158342460344
24496,0.15777191162109375,-0.4471202087402344,9.87122268676758,40.68556895072363
24570,0.11870315551757814,-0.43080413818359375,9.90145980834961,28.33147111912785
24630,0.1483415222167969,-0.4263134765625,9.853260040283203,34.466924663715275
24696,0.13576766967773438,-0.43349853515625003,9.895172882080079,39.16822284595912
24770,0.11900253295898439,-0.42840911865234377,9.895322570800781,37.240299729355975
24830,0.1490899658203125,-0.4390370178222657,9.855056304931642,37.740057302582095
24896,0.11585906982421876,-0.427510986328125,9.886341247558594,34.050046650503695
24964,0.1538800048828125,-0.43739044189453125,9.86403762817383,25.403294747908735
25029,0.13726455688476563,-0.41882904052734377,9.910890197753906,17.075701760979364
25095,0.12633728027343752,-0.44457550048828126,9.912387084960939,17.853298350107668
25165,0.1395098876953125,-0.4441264343261719,9.933493194580079,21.46128035678238
25229,0.10852432250976562,-0.4405339050292969,9.931696929931642,35.35547279176668
25295,0.16136444091796875,-0.4153861999511719,9.927206268310547,43.68100851709351
25365,0.11555969238281251,-0.43230102539062504,9.905501403808595,42.501027050646265
25430,0.14819183349609374,-0.4417314147949219,9.887838134765625,41.2440639974503
25495,0.11660751342773439,-0.43110351562500004,9.903555450439454,34.75089803389007
25565,0.12588821411132814,-0.4278103637695313,9.864187316894531,33.4752515999869
25632,0.16016693115234376,-0.44023452758789067,9.866732025146485,27.558748556724915
25695,0.11226654052734375,-0.42691223144531254,9.896071014404297,16.232492903979004
25764,0.16091537475585938,-0.4110452270507813,9.833052062988282,37.18584720027436
25830,0.13651611328125002,-0.4427792358398438,9.930499420166017,40.34949146676372
25896,0.07409591674804687,-0.46657974243164063,9.925260314941406,31.309766916056173
25965,0.1898052978515625,-0.3938310241699219,9.909842376708985,39.11317442324031
26031,0.05673202514648438,-0.45026367187500005,9.916129302978517,36.82956926301208
26096,0.2041754150390625,-0.4331991577148438,9.847571868896486,39.48608549876437
26172,0.11121871948242187,-0.4263134765625,9.900861053466798,26.364878963533656
26230,0.15298187255859375,-0.40550674438476564,9.927355957031251,41.73943437284376
26296,0.13007949829101564,-0.4736151123046875,9.890083465576172,27.31588765186739
26367,0.09894424438476564,-0.4549040222167969,9.905501403808595,28.337843746564786
26431,0.18890716552734377,-0.4140390014648438,9.876162414550782,36.43156465619706
26496,0.08337661743164063,-0.4537065124511719,9.887389068603516,29.836262871245346
26564,0.17124389648437502,-0.4343966674804688,9.877958679199219,22.30448921378274
26629,0.14160552978515625,-0.4207749938964844,9.891730041503907,29.16453948549925
26695,0.13202545166015625,-0.43843826293945315,9.8626904296875,37.93021659845983
26764,0.16929794311523438,-0.45385620117187503,9.86074447631836,31.85258765296585
26831,0.09654922485351564,-0.40969802856445314,9.89427474975586,30.52693941924968
26895,0.16256195068359375,-0.43080413818359375,9.851463775634766,14.471580313422193
26965,0.1275347900390625,-0.45161087036132813,9.889035644531251,15.563025007672874
27030,0.12229568481445313,-0.4129911804199219,9.871971130371094,16.232492903979004
27095,0.15118560791015626,-0.44981460571289067,9.874216461181641,15.051499783199061
27165,0.11870315551757814,-0.4483177185058594,9.937085723876953,13.617278360175929
27229,0.15343093872070312,-0.4221221923828125,9.887239379882812,15.440680443502757
27295,0.132923583984375,-0.44442581176757817,9.908046112060548,13.010299956639813
27370,0.1359173583984375,-0.4291575622558594,9.917326812744141,44.797624037197025
27429,0.14145584106445314,-0.4182302856445313,9.883347473144532,49.39239616737797
27496,0.12499008178710938,-0.43484573364257817,9.895771636962891,32.038484637462346
27564,0.14160552978515625,-0.4387376403808594,9.880952453613281,41.52594077927469
27629,0.14280303955078125,-0.42122406005859375,9.89951385498047,42.613818372857466
27696,0.12963043212890626,-0.4400848388671875,9.898016967773438,42.03168922875464
27770,0.1502874755859375,-0.4290078735351563,9.87122268676758,48.25289770744824
27829,0.13501922607421876,-0.4532574462890625,9.870174865722657,50.48305822453266
27896,0.14055770874023438,-0.42541534423828126,9.930050354003907,44.825448811864355
27969,0.11750564575195313,-0.43544448852539064,9.901759185791017,45.809819659626775
28032,0.14819183349609374,-0.45744873046875,9.922266540527344,36.91346764134822
28096,0.11391311645507814,-0.4409829711914063,9.978998565673828,23.57934847000454
28164,0.14400054931640627,-0.4328997802734375,9.906998291015626,17.558748556724915
28229,0.12005035400390626,-0.4590953063964844,9.88993377685547,14.471580313422193
28295,0.14115646362304687,-0.4285588073730469,9.941426696777345,11.760912590556813
28365,0.162861328125,-0.40775207519531254,9.889784088134766,40.73021454359739
28429,0.11091934204101563,-0.4734654235839844,9.851763153076172,36.69595781024314
28495,0.16735198974609375,-0.4302053833007813,9.859097900390626,32.24014811372864
28566,0.10433303833007813,-0.40356079101562503,9.859247589111328,45.82233863920993
28630,0.15911911010742188,-0.44726989746093754,9.856553192138673,46.691866656989546
28695,0.12963043212890626,-0.4631369018554688,9.885742492675782,36.508900778563124
28765,0.143701171875,-0.3703298950195313,9.880952453613281,45.146008741185994
28830,0.13457015991210938,-0.46957351684570314,9.805509338378906,41.486026548060934
28895,0.1389111328125,-0.44307861328125003,9.925260314941406,33.71067862271736
28964,0.13457015991210938,-0.3998185729980469,9.8483203125,36.79155241283354
29030,0.14385086059570312,-0.4400848388671875,9.873767395019533,23.74748346010104
29096,0.12768447875976563,-0.4555027770996094,9.889634399414064,23.873898263387293
29165,0.14564712524414064,-0.4014651489257813,9.870474243164063,37.22716167488495
29230,0.12199630737304688,-0.456251220703125,9.883048095703126,32.69045709657623
29296,0.15837066650390627,-0.4417314147949219,9.896220703125001,33.01029995663981
29366,0.1335223388671875,-0.41074584960937505,9.84592529296875,32.30704313612569
29430,0.149688720703125,-0.43768981933593754,9.84008743286133,40.68334313117254
29496,0.13696517944335937,-0.4390370178222657,9.878258056640625,28.048206787211623
29572,0.128133544921875,-0.41508682250976564,9.827663269042969,44.023645688841604
29630,0.14160552978515625,-0.45804748535156253,9.808203735351563,32.88472800599783
29696,0.12678634643554687,-0.43739044189453125,9.83724334716797,38.66169147633771
29764,0.13007949829101564,-0.4186793518066406,9.844278717041016,40.77840102734994
29829,0.1694476318359375,-0.40236328125000004,9.805509338378906,31.61667412437736
29895,0.10029144287109376,-0.4159849548339844,9.847122802734376,28.615344108590378
29964,0.164058837890625,-0.4698728942871094,9.801916809082032,31.386184338994923
30030,0.12319381713867188,-0.4056564331054688,9.960736541748048,32.45759355967277
30095,0.11032058715820313,-0.44562332153320316,9.730365600585937,23.979400086720375
30164,0.21106109619140626,-0.40730300903320316,9.796378326416017,14.471580313422193
30230,0.056582336425781254,-0.4231700134277344,9.931696929931642,13.222192947339193
30295,0.20746856689453125,-0.42152343750000004,9.822124786376953,13.979400086720377
30364,0.10463241577148438,-0.47181884765625004,9.900112609863282,15.314789170422552
30430,0.1580712890625,-0.3902384948730469,9.925859069824218,13.424226808222063
30495,0.16241226196289063,-0.42541534423828126,9.840237121582032,11.760912590556813
30566,0.07514373779296875,-0.46762756347656254,9.910890197753906,10.79181246047625
30630,0.19639160156250002,-0.40969802856445314,9.89711883544922,11.760912590556813
30696,0.10747650146484375,-0.4339476013183594,9.873168640136718,37.46867627850429
30764,0.1381626892089844,-0.44876678466796877,9.935888214111328,43.82557321908786
30830,0.14444961547851562,-0.41852966308593753,9.890682220458984,43.1107540830008
30896,0.09789642333984376,-0.41568557739257816,9.898316345214845,35.83198773968623
30969,0.1537303161621094,-0.4623884582519531,9.859546966552735,30.54613054556888
31030,0.12723541259765625,-0.39966888427734376,9.957443389892578,42.60929583529925
31096,0.11271560668945313,-0.44038421630859376,9.837842102050782,42.49589657772943
31169,0.18561401367187502,-0.4465214538574219,9.884544982910157,49.05585425846268
31229,0.101788330078125,-0.41284149169921874,9.941277008056641,52.26854994394478
31296,0.17333953857421877,-0.41927810668945314,9.912387084960939,48.986209822828116
31367,0.08652008056640625,-0.5319937133789063,9.854906616210938,46.42879819748734
31429,0.17558486938476564,-0.4520599365234375,9.91343490600586,40.672568892381506
31495,0.1011895751953125,-0.4022135925292969,9.899364166259765,44.82587769526767
31567,0.1442999267578125,-0.46373565673828127,9.844727783203126,53.89830312608063
31629,0.13322296142578124,-0.4980143737792969,9.915380859375,46.573809736945506
31695,0.11301498413085938,-0.38814285278320315,9.934541015625001,41.069723998866735
31764,0.15762222290039063,-0.4686753845214844,9.8243701171875,31.775364999298624
31829,0.09295669555664063,-0.48873367309570315,9.923464050292969,44.834589150942136
31895,0.16555572509765626,-0.398770751953125,9.885443115234375,40.623563180854376
31967,0.13142669677734375,-0.4608915710449219,9.843679962158204,45.22757125797882
32029,0.13097763061523438,-0.4932243347167969,9.89906478881836,40.863598306747484
32095,0.14864089965820312,-0.4195774841308594,9.916578369140625,42.0227029773729
32167,0.111368408203125,-0.4577481079101563,9.86313949584961,33.380578754197565
32229,0.16256195068359375,-0.4854405212402344,9.877808990478517,33.265406685165615
32296,0.12618759155273437,-0.4233197021484375,9.421857147216798,35.715923833613076
32364,0.18576370239257814,-0.3062631225585938,9.780062255859375,36.70987603010034
32429,0.12918136596679688,-0.48139892578125004,9.818083190917969,40.9684052033139
32496,0.17528549194335938,-0.4237687683105469,9.821076965332031,42.28323349308016
32571,0.12289443969726563,-0.3704795837402344,9.873018951416016,42.27655361923042
32629,0.14624588012695314,-0.5023553466796875,9.825867004394532,50.14583536289437
32696,0.13636642456054687,-0.4263134765625,9.908046112060548,39.831299247347
32765,0.15552658081054688,-0.30641281127929687,9.811496887207031,46.19927710291468
32830,0.1273851013183594,-0.47795608520507815,9.842482452392579,25.899496013257078
32896,0.1435514831542969,-0.4824467468261719,9.864786071777344,44.82573473883918
32966,0.1484912109375,-0.3638932800292969,9.894873504638673,28.887409606828925
33029,0.13561798095703126,-0.47795608520507815,9.797875213623048,50.324213093893036
33096,0.16316070556640624,-0.4451742553710938,9.908046112060548,45.34356146013838
33165,0.11211685180664063,-0.36359390258789065,9.888137512207031,48.85038772422625
33229,0.17079483032226564,-0.41508682250976564,9.900561676025392,33.619166186686435
33296,0.0748443603515625,-0.5086422729492188,9.95415023803711,22.30448921378274
33365,0.19848724365234377,-0.319735107421875,10.010133819580078,49.98141592031536
33430,0.08412506103515625,-0.44996429443359376,9.83829116821289,47.14069775979028
33496,0.17962646484375,-0.47975234985351567,9.922416229248048,39.132839017604184
33564,0.12918136596679688,-0.3936813354492188,9.900861053466798,31.866738674997453
33631,0.12259506225585938,-0.38814285278320315,9.883347473144532,31.50756439860309
33696,0.1431024169921875,-0.5043013000488281,9.874665527343751,26.63700925389648
33764,0.10253677368164063,-0.40266265869140627,9.905501403808595,12.30448921378274
33830,0.1531315612792969,-0.398770751953125,9.832153930664063,11.46128035678238
33896,0.1119671630859375,-0.4710704040527344,9.895921325683593,14.14973347970818
33965,0.137713623046875,-0.4149371337890625,9.916728057861329,14.471580313422193
34030,0.1454974365234375,-0.41029678344726567,9.859397277832032,10.0
34096,0.12094848632812501,-0.45385620117187503,9.880653076171875,12.552725051033061
34164,0.15672409057617187,-0.42960662841796876,9.848919067382813,11.46128035678238
34232,0.1285826110839844,-0.40116577148437504,9.866881713867189,9.542425094393248
34296,0.1395098876953125,-0.4390370178222657,9.878856811523438,11.46128035678238
34366,0.14594650268554688,-0.4302053833007813,9.895921325683593,9.030899869919436
34429,0.11331436157226563,-0.4113446044921875,9.871072998046875,13.010299956639813
34496,0.15881973266601562,-0.42526565551757817,9.87661148071289,18.45098040014257
34564,0.12588821411132814,-0.43963577270507814,9.89996292114258,27.664128471123995
34632,0.13247451782226563,-0.41763153076171877,9.875863037109376,30.972573096934198
34696,0.16181350708007813,-0.4209246826171875,9.927954711914063,48.48182956742292
34765,0.10942245483398438,-0.45295806884765627,9.852212219238282,50.12664315786473
34829,0.14699432373046875,-0.40505767822265626,9.90580078125,36.76602169582018
34896,0.12633728027343752,-0.4071533203125,9.879156188964844,24.377505628203878
34964,0.12379257202148439,-0.42152343750000004,9.877060546875,48.13861088211506
35030,0.14040802001953126,-0.45041336059570314,9.874964904785157,48.21257985895545
35096,0.13786331176757813,-0.37437149047851564,9.923613739013673,43.47271454809604
35166,0.12499008178710938,-0.4387376403808594,9.840536499023438,29.111576087399765
35229,0.15896942138671877,-0.42346939086914065,9.898316345214845,39.00858504701992
35296,0.11795471191406251,-0.40191421508789066,9.907447357177736,43.58505911490235
35365,0.149688720703125,-0.4207749938964844,9.869127044677734,44.43262987458695
35431,0.13202545166015625,-0.45415557861328126,9.903555450439454,47.586091426597434
35496,0.13412109375,-0.37976028442382814,9.907147979736328,36.479694583629716
35565,0.13936019897460938,-0.44023452758789067,9.874066772460939,49.604993173072785
35630,0.12229568481445313,-0.4397854614257813,9.93738510131836,40.76385543954533
35696,0.14998809814453126,-0.38320312500000003,9.906399536132813,37.05778212828598
35764,0.12274475097656251,-0.437091064453125,9.860145721435547,46.34124451552188
35830,0.14504837036132814,-0.4305047607421875,9.896520080566408,45.3731527311201
35896,0.12439132690429688,-0.3879931640625,9.898915100097657,40.98020386209668
35964,0.13382171630859377,-0.43304946899414065,9.864187316894531,42.24351745013416
36030,0.13681549072265625,-0.45535308837890626,9.896819458007814,42.77357044047016
36096,0.12469070434570313,-0.38739440917968754,9.891280975341797,42.175102642940274
36165,0.14160552978515625,-0.4397854614257813,9.883048095703126,20.934216851622352
36230,0.12918136596679688,-0.4495152282714844,9.96133529663086,17.781512503836435
36296,0.13037887573242188,-0.4165837097167969,9.868977355957032,14.313637641589875
36365,0.14519805908203126,-0.4129911804199219,9.87511459350586,11.139433523068368
36429,0.12005035400390626,-0.46523254394531255,9.920919342041016,41.11800006898345
36496,0.15073654174804688,-0.4228706359863281,9.911938018798828,28.621313793130373
36566,0.12588821411132814,-0.4291575622558594,9.917925567626954,46.90816057980915
36629,0.13457015991210938,-0.43065444946289066,9.922266540527344,48.2827956128369
36696,0.14145584106445314,-0.41628433227539063,9.879754943847656,35.11616020569137
36765,0.12918136596679688,-0.4351451110839844,9.902807006835937,36.1394747678035
36832,0.13741424560546875,-0.4195774841308594,9.930349731445313,40.265741181503344
36896,0.13112731933593752,-0.4279600524902344,9.87840774536133,44.594377244117275
36965,0.13921051025390627,-0.429906005859375,9.888287200927735,28.656960599160705
37030,0.13127700805664064,-0.42840911865234377,9.918973388671876,37.301360039966774
37096,0.13501922607421876,-0.41733215332031254,9.891580352783203,34.68347330412157
37164,0.13322296142578124,-0.43604324340820316,9.882449340820314,40.114012599247445
37230,0.14325210571289063,-0.43349853515625003,9.870025177001954,38.768526476013434
37296,0.13367202758789062,-0.4028123474121094,9.862989807128907,32.14843848047698
37365,0.14205459594726563,-0.42167312622070313,9.86074447631836,36.634182122526795
37430,0.1323248291015625,-0.425115966796875,9.886790313720704,39.13124790389559
37496,0.12543914794921876,-0.4113446044921875,9.89906478881836,23.283796034387375
37566,0.13397140502929689,-0.42526565551757817,9.888137512207031,16.334684555795864
37630,0.13262420654296875,-0.42885818481445315,9.909842376708985,10.0
37696,0.13037887573242188,-0.4183799743652344,9.88424560546875,14.771212547196624
37766,0.1429527282714844,-0.4140390014648438,9.868827667236328,15.051499783199061
37831,0.11885284423828125,-0.41388931274414065,9.916428680419923,14.913616938342727
37896,0.14864089965820312,-0.4336482238769531,9.87750961303711,37.866094726486594
37966,0.135318603515625,-0.42541534423828126,9.875264282226563,40.5656185185946
38029,0.13861175537109377,-0.42661285400390625,9.963580627441408,22.988530764097067
38096,0.12334350585937501,-0.4182302856445313,10.075697479248047,55.68938226062598
38165,0.10822494506835938,-0.47136978149414066,9.856553192138673,36.81602998730868
38229,0.13486953735351564,-0.43185195922851566,9.89711883544922,35.018804937550584
38296,0.11720626831054688,-0.37511993408203126,9.80281494140625,52.015882810735185
38365,0.21405487060546877,-0.3113525390625,9.744136962890625,51.54858962703634
38429,0.0580792236328125,-0.5475613403320313,9.939031677246094,46.68553637533001
38496,0.20118164062500002,-0.4555027770996094,10.049801330566407,33.23045735481701
38565,0.09026229858398438,-0.39428009033203126,9.979447631835939,27.151673578484576
38629,0.1622625732421875,-0.4465214538574219,9.73096435546875,26.90196080028514
38696,0.16780105590820313,-0.4592449951171875,9.87661148071289,20.644579892269185
38765,0.07604187011718751,-0.32677047729492187,9.931547241210938,34.43262987458695
38830,0.2034269714355469,-0.44996429443359376,9.77257781982422,26.127838567197355
38896,0.10942245483398438,-0.47376480102539065,9.920470275878907,28.175653695597806
38965,0.11810440063476563,-0.3394940185546875,9.888137512207031,27.283537820212285
39029,0.15567626953125,-0.44457550048828126,9.79173797607422,22.671717284030137
39096,0.0940045166015625,-0.4496649169921875,9.956245880126954,14.14973347970818
39165,0.16585510253906252,-0.36239639282226566,9.85834945678711,12.78753600952829
39230,0.11555969238281251,-0.42706192016601563,9.880503387451173,14.771212547196624
39296,0.12259506225585938,-0.4674778747558594,9.904004516601564,14.771212547196624
39364,0.1621128845214844,-0.3646417236328125,9.87032455444336,14.62397997898956
39429,0.11121871948242187,-0.41763153076171877,9.872569885253906,15.68201724066995
39496,0.14579681396484376,-0.44876678466796877,9.869127044677734,13.617278360175929
39572,0.14654525756835937,-0.3698808288574219,9.853409729003907,18.45098040014257
39630,0.1047821044921875,-0.4076023864746094,10.09830047607422,19.444826721501688
39696,0.17648300170898437,-0.47795608520507815,9.99965560913086,33.85784958843336
39766,0.09250762939453125,-0.41314086914062503,9.944270782470703,52.16949301442987
39829,0.16136444091796875,-0.43065444946289066,9.874964904785157,53.1102660365699
39896,0.13127700805664064,-0.4225712585449219,9.913584594726563,49.341397577134714
39964,0.13262420654296875,-0.4135899353027344,9.883946228027344,51.40655715762761
40030,0.15522720336914064,-0.41448806762695317,9.915979614257813,54.48692409894644
40096,0.09804611206054688,-0.42706192016601563,9.918524322509766,55.38094690195195
40165,0.16076568603515626,-0.4378395080566406,9.858948211669922,39.50948714399401
40229,0.12319381713867188,-0.41688308715820316,9.930798797607423,43.644008892496856
40296,0.1279838562011719,-0.4182302856445313,9.866133270263672,43.269499941659994
40364,0.14145584106445314,-0.4293072509765625,9.879605255126954,42.468923201535986
40430,0.11406280517578125,-0.4056564331054688,9.926757202148439,40.64008486531725
40496,0.15911911010742188,-0.4076023864746094,9.866133270263672,38.79038505237237
40565,0.11061996459960938,-0.4495152282714844,9.85161346435547,35.3504081325116
40630,0.14534774780273438,-0.4002676391601563,9.897867279052734,34.13634997198556
40696,0.15088623046875002,-0.4052073669433594,9.85550537109375,30.614524790871933
40764,0.12094848632812501,-0.45655059814453125,9.872420196533204,17.16003343634799
40831,0.14415023803710938,-0.3998185729980469,9.919871520996095,15.185139398778876
40896,0.1239422607421875,-0.41344024658203127,9.854457550048828,10.79181246047625
40964,0.1327738952636719,-0.43604324340820316,9.86792953491211,15.440680443502757
41030,0.13621673583984376,-0.41269180297851565,9.940977630615235,12.30448921378274
41096,0.13367202758789062,-0.40475830078125,9.884095916748047,10.0
41164,0.137713623046875,-0.43604324340820316,9.864337005615235,39.115837009810754
41232,0.118553466796875,-0.41388931274414065,9.900411987304688,53.09717443331104
41296,0.15402969360351562,-0.39547760009765626,9.86942642211914,54.019620030929055
41365,0.11061996459960938,-0.4559518432617188,9.9105908203125,35.49616239519085
41431,0.14220428466796875,-0.4129911804199219,9.888287200927735,43.21494866739587
41496,0.12469070434570313,-0.39278320312500004,9.900861053466798,49.07217820114448
41565,0.12199630737304688,-0.4405339050292969,9.887389068603516,47.117566286781724
41629,0.15178436279296875,-0.415535888671875,9.92106903076172,47.94355577097677
41696,0.12409194946289064,-0.39278320312500004,9.862540740966798,51.58196584044787
41765,0.15657440185546875,-0.44113265991210937,9.894424438476562,52.0330763556943
41829,0.10822494506835938,-0.43125320434570313,9.909093933105469,38.50278552518037
41896,0.15597564697265626,-0.39472915649414064,9.90430389404297,38.39603729470837
41965,0.12663665771484375,-0.44337799072265627,9.86942642211914,44.37972408439349
42030,0.14145584106445314,-0.40670425415039063,9.927056579589845,43.33648756514701
42096,0.13606704711914064,-0.42167312622070313,9.841434631347656,39.09876817990393
42166,0.13965957641601562,-0.4263134765625,9.885892181396486,32.08710019906401
42229,0.12603790283203126,-0.4248165893554688,9.892179107666015,24.913616938342727
42295,0.14474899291992188,-0.39398071289062503,9.907297668457032,36.35282637998212
42365,0.11600875854492188,-0.4393363952636719,9.903256072998047,44.34967888427813
42430,0.13965957641601562,-0.41463775634765626,9.896370391845704,27.11807229041191
42495,0.13127700805664064,-0.42167312622070313,9.89861572265625,32.72537777375237
42564,0.13007949829101564,-0.43544448852539064,9.902956695556641,45.356991038528875
42630,0.14864089965820312,-0.4272116088867188,9.88708969116211,44.53318340047038
42695,0.12379257202148439,-0.4040098571777344,9.908345489501954,31.54423973114647
42764,0.1395098876953125,-0.43200164794921875,9.900262298583986,21.986570869544227
42829,0.14400054931640627,-0.4273612976074219,9.90385482788086,47.42175043223678
42896,0.128133544921875,-0.41628433227539063,9.886041870117188,48.9024212194162
42966,0.15178436279296875,-0.4213737487792969,9.901908874511719,35.11214701136388
43031,0.1333726501464844,-0.4255650329589844,9.895921325683593,33.72359582524324
43096,0.14504837036132814,-0.4105961608886719,9.879605255126954,28.457180179666587
43169,0.1477427673339844,-0.4293072509765625,9.884844360351563,37.12902125047223
43230,0.12334350585937501,-0.42691223144531254,9.908345489501954,34.466924663715275
43296,0.14804214477539063,-0.42167312622070313,9.879754943847656,36.056282220076184
43371,0.14100677490234376,-0.4177812194824219,9.893675994873048,49.59766202112605
43430,0.140108642578125,-0.4147874450683594,9.896520080566408,46.75127328489335
43496,0.12903167724609377,-0.41927810668945314,9.884095916748047,41.66282067316571
43565,0.1347198486328125,-0.4099974060058594,9.895771636962891,49.2649678927322
43630,0.132923583984375,-0.4357438659667969,9.885443115234375,51.586368553982865
43695,0.14085708618164064,-0.39772293090820315,10.04366409301758,50.59355118640656
43765,0.12124786376953126,-0.4578977966308594,9.854307861328126,50.800742501211445
43830,0.12424163818359375,-0.49711624145507816,9.770781555175782,52.715883878183774
43895,0.16016693115234376,-0.4891827392578125,9.85595443725586,34.19790586106363
43964,0.1299298095703125,-0.35581008911132816,9.945917358398438,17.16003343634799
44030,0.14055770874023438,-0.4860392761230469,9.830657043457032,13.222192947339193
44096,0.16106506347656252,-0.4981640625,9.903555450439454,15.563025007672874
44166,0.09714797973632813,-0.3686833190917969,9.919871520996095,15.051499783199061
44231,0.17468673706054688,-0.4644841003417969,9.818981323242188,14.771212547196624
44296,0.11361373901367187,-0.49651748657226563,9.949509887695314,16.62757831681574
44364,0.12828323364257813,-0.39113662719726566,9.91103988647461,33.41038631677523
44436,0.1694476318359375,-0.4686753845214844,9.841883697509767,24.329692908744057
44496,0.10103988647460938,-0.4981640625,9.934391326904297,20.21189299069938
44564,0.1622625732421875,-0.40386016845703127,9.895023193359375,13.617278360175929
44630,0.11660751342773439,-0.4517605590820313,9.86403762817383,36.19823500457278
44696,0.1383123779296875,-0.4824467468261719,9.938881988525392,39.79275147591024
44766,0.147293701171875,-0.4189787292480469,9.885293426513673,41.39249217571607
44832,0.11570938110351563,-0.4581971740722656,9.90535171508789,54.12274021161334
44896,0.15687377929687502,-0.4854405212402344,9.908944244384767,53.10023834437932
44964,0.128133544921875,-0.4263134765625,9.899663543701172,46.93981824321287
45029,0.1381626892089844,-0.45535308837890626,9.879006500244142,41.647393842914326
45096,0.14040802001953126,-0.47481262207031255,9.899663543701172,27.299742856995554
45166,0.11810440063476563,-0.4336482238769531,9.873617706298829,26.042260530844704
45230,0.13726455688476563,-0.4520599365234375,9.867630157470703,19.912260756924947
45296,0.13846206665039062,-0.4577481079101563,9.901908874511719,33.36059277866349
45365,0.13621673583984376,-0.4400848388671875,9.874066772460939,44.819726315639585
45430,0.1407073974609375,-0.4513114929199219,9.881700897216797,32.723058444020864
45496,0.1279838562011719,-0.45295806884765627,9.874216461181641,28.66877814337499
45566,0.14624588012695314,-0.4513114929199219,9.864486694335938,27.535830588929066
45630,0.13247451782226563,-0.4508624267578125,9.899663543701172,45.22913487449222
45696,0.14280303955078125,-0.434696044921875,9.902058563232423,42.928096654172904
45765,0.1381626892089844,-0.4655319213867188,9.861941986083984,40.132586652835165
45831,0.12903167724609377,-0.45101211547851566,9.90145980834961,22.671717284030137
45896,0.13457015991210938,-0.4328997802734375,9.879006500244142,14.313637641589875
45964,0.13442047119140627,-0.4662803649902344,9.876761169433594,12.041199826559248
46030,0.13636642456054687,-0.46837600708007815,9.89277786254883,11.760912590556813
46096,0.13621673583984376,-0.4358935546875,9.87750961303711,10.79181246047625
46166,0.135318603515625,-0.4721182250976563,9.889784088134766,12.552725051033061
46232,0.12888198852539062,-0.46493316650390626,9.902058563232423,11.139433523068368
46296,0.14459930419921876,-0.4345463562011719,9.872569885253906,13.010299956639813
46365,0.13546829223632814,-0.47975234985351567,9.884844360351563,8.45098040014257
46430,0.13786331176757813,-0.4496649169921875,9.909243621826173,10.413926851582252
46496,0.1435514831542969,-0.4321513366699219,9.880353698730469,13.424226808222063
46566,0.13516891479492188,-0.4796026611328125,9.886790313720704,11.760912590556813
46629,0.137713623046875,-0.45984375,9.92061996459961,11.139433523068368
46696,0.13606704711914064,-0.42870849609375,9.871971130371094,17.481880270062003
46764,0.13202545166015625,-0.4667294311523438,9.888736267089845,19.344984512435676
46830,0.14115646362304687,-0.4559518432617188,9.915979614257813,15.563025007672874
46896,0.14624588012695314,-0.42706192016601563,9.876461791992188,13.010299956639813
46965,0.13097763061523438,-0.47481262207031255,9.887987823486329,13.222192947339193
47030,0.140108642578125,-0.46253814697265627,9.904902648925782,10.413926851582252
47096,0.14130615234375002,-0.4424798583984375,9.886341247558594,14.313637641589875
47165,0.13501922607421876,-0.4770579528808594,9.897418212890626,9.542425094393248
47230,0.142503662109375,-0.4650828552246094,9.89382568359375,24.487063199050798
47296,0.1327738952636719,-0.4340972900390625,9.883347473144532,21.5836249209525
47364,0.1387614440917969,-0.46538223266601564,9.888586578369141,53.497630439879494
47429,0.12723541259765625,-0.45161087036132813,9.894574127197266,51.0704368446146
47496,0.13726455688476563,-0.44158172607421875,9.888885955810547,39.48706308904852
47564,0.14055770874023438,-0.46538223266601564,9.885443115234375,52.203800909523615
47629,0.132923583984375,-0.458646240234375,9.89996292114258,49.538031673138775
47696,0.13696517944335937,-0.44158172607421875,9.878856811523438,46.831551478893026
47765,0.13127700805664064,-0.4631369018554688,9.89666976928711,39.73312620452902
47829,0.13741424560546875,-0.45041336059570314,9.883048095703126,39.76441689378844
47896,0.1423539733886719,-0.4505630493164063,9.877659301757813,36.110857334148726
47964,0.13651611328125002,-0.45744873046875,9.896969146728516,43.9485426728004
48030,0.14055770874023438,-0.45385620117187503,9.897418212890626,40.232524596337115
48096,0.13726455688476563,-0.4432283020019531,9.886940002441406,40.996115903925286
48164,0.1454974365234375,-0.45699966430664063,9.887838134765625,46.86573712053882
48229,0.13846206665039062,-0.45580215454101564,9.893226928710938,46.26566182856055
48296,0.14205459594726563,-0.4489164733886719,9.898915100097657,41.38271111964449
48364,0.1347198486328125,-0.4567002868652344,9.891580352783203,33.912880485952975
48430,0.14325210571289063,-0.4537065124511719,9.888287200927735,42.375437381428746
48496,0.13187576293945313,-0.4459226989746094,9.881251831054689,34.38384107034714
48564,0.13936019897460938,-0.4540058898925782,9.895921325683593,30.35829825252828
48629,0.13397140502929689,-0.4540058898925782,9.889335021972657,42.51735530437842
48696,0.130528564453125,-0.46523254394531255,9.895322570800781,30.24074987307426
48764,0.13846206665039062,-0.45535308837890626,9.895472259521485,22.355284469075485
48830,0.13741424560546875,-0.4623884582519531,9.890083465576172,14.771212547196624
48896,0.13861175537109377,-0.4589456176757813,9.89098159790039,13.222192947339193
48964,0.13696517944335937,-0.4501139831542969,9.895023193359375,14.771212547196624
49030,0.13576766967773438,-0.45235931396484375,9.881551208496095,14.471580313422193
49096,0.1383123779296875,-0.45235931396484375,9.893526306152344,11.760912590556813
49165,0.1407073974609375,-0.4493655395507813,9.895023193359375,13.222192947339193
49231,0.1429527282714844,-0.4559518432617188,9.881401519775391,13.222192947339193
49296,0.132923583984375,-0.4646337890625,9.893077239990236,16.127838567197355
49364,0.13861175537109377,-0.44442581176757817,9.889185333251953,13.80211241711606
49431,0.14325210571289063,-0.46059219360351566,9.883946228027344,14.14973347970818
49496,0.13442047119140627,-0.4616400146484375,9.892029418945313,15.563025007672874
49564,0.14175521850585937,-0.4412823486328125,9.897567901611328,12.552725051033061
49631,0.1323248291015625,-0.46298721313476565,9.877808990478517,13.617278360175929
49696,0.14564712524414064,-0.4613406372070313,9.889335021972657,13.010299956639813
49764,0.14160552978515625,-0.44622207641601563,9.878707122802735,10.413926851582252
49831,0.12469070434570313,-0.44981460571289067,9.897867279052734,13.010299956639813
49896,0.14040802001953126,-0.45640090942382816,9.890831909179688,17.634279935629372
49964,0.13037887573242188,-0.4439767456054688,9.886640625,13.979400086720377
50029,0.135318603515625,-0.46104125976562504,9.909692687988281,14.313637641589875
50096,0.13202545166015625,-0.4507127380371094,9.907597045898438,17.481880270062003
50164,0.13516891479492188,-0.44801834106445315,9.893675994873048,22.430380486862944
50230,0.14998809814453126,-0.4463717651367188,9.884544982910157,40.348289156558366
50296,0.137713623046875,-0.4628375244140625,9.917027435302735,43.730408000296784
50366,0.13906082153320312,-0.45640090942382816,9.893675994873048,43.85141347604658
50430,0.13846206665039062,-0.46538223266601564,9.900262298583986,40.33463966077405
50496,0.1429527282714844,-0.4646337890625,9.903256072998047,19.084850188786497
50565,0.1454974365234375,-0.44786865234375,9.900711364746094,12.30448921378274
50629,0.1383123779296875,-0.45684997558593754,9.902956695556641,9.542425094393248
50696,0.14444961547851562,-0.4608915710449219,9.893077239990236,30.86359830674748
50765,0.13906082153320312,-0.44307861328125003,9.896520080566408,25.69373909615046
50830,0.1333726501464844,-0.45161087036132813,9.904453582763672,17.708520116421443
50896,0.13995895385742188,-0.4520599365234375,9.89996292114258,13.979400086720377
50964,0.14040802001953126,-0.456251220703125,9.89232879638672,15.185139398778876
51032,0.13561798095703126,-0.4528083801269531,9.889335021972657,14.14973347970818
51096,0.14025833129882814,-0.4550537109375,9.890831909179688,12.552725051033061
51165,0.13606704711914064,-0.45520339965820317,9.886940002441406,9.542425094393248
51229,0.13921051025390627,-0.4528083801269531,9.884544982910157,18.920946026904804
51296,0.13457015991210938,-0.45699966430664063,9.887838134765625,13.979400086720377
51363,0.13681549072265625,-0.4572990417480469,9.886940002441406,12.78753600952829
51433,0.14594650268554688,-0.4550537109375,9.883946228027344,12.30448921378274
51496,0.13681549072265625,-0.45265869140625004,9.897418212890626,15.185139398778876
51565,0.14415023803710938,-0.46074188232421875,9.880353698730469,12.552725051033061
51630,0.13247451782226563,-0.4559518432617188,9.895771636962891,15.563025007672874
51696,0.14684463500976563,-0.4436773681640625,9.882898406982422,10.79181246047625
51765,0.1383123779296875,-0.4519102478027344,9.897717590332032,11.760912590556813
51830,0.14160552978515625,-0.4549040222167969,9.893077239990236,8.45098040014257
51896,0.13546829223632814,-0.44981460571289067,9.889035644531251,12.78753600952829
51965,0.13711486816406251,-0.4596940612792969,9.892927551269532,10.0
52029,0.14145584106445314,-0.4483177185058594,9.891580352783203,11.760912590556813
52096,0.14145584106445314,-0.44981460571289067,9.901908874511719,15.185139398778876
52165,0.128133544921875,-0.4626878356933594,9.906549224853515,8.45098040014257
52231,0.13801300048828125,-0.4531077575683594,9.899214477539063,15.314789170422552
52296,0.13995895385742188,-0.45161087036132813,9.885742492675782,13.80211241711606
52366,0.14160552978515625,-0.4616400146484375,9.895172882080079,13.222192947339193
52430,0.13247451782226563,-0.4517605590820313,9.897418212890626,9.030899869919436
52496,0.140108642578125,-0.44682083129882816,9.897867279052734,14.313637641589875
52564,0.1387614440917969,-0.4543052673339844,9.901759185791017,12.30448921378274
52630,0.143701171875,-0.4544549560546875,9.895172882080079,13.424226808222063
52696,0.13082794189453126,-0.46223876953125004,9.892628173828125,9.542425094393248
52764,0.14115646362304687,-0.4572990417480469,9.895172882080079,14.313637641589875
52829,0.13861175537109377,-0.44562332153320316,9.904154205322266,10.413926851582252
52896,0.14564712524414064,-0.4517605590820313,9.895621948242187,17.075701760979364
52964,0.1327738952636719,-0.4572990417480469,9.895771636962891,9.030899869919436
53030,0.13980926513671876,-0.45535308837890626,9.893376617431642,15.440680443502757
53096,0.13636642456054687,-0.4632865905761719,9.892179107666015,11.46128035678238
53165,0.13980926513671876,-0.449066162109375,9.898466033935547,17.708520116421443
53229,0.1407073974609375,-0.449066162109375,9.88948471069336,20.863598306747484
53296,0.13427078247070312,-0.4608915710449219,9.885293426513673,36.20552444729435
53366,0.14085708618164064,-0.4571493530273438,9.894574127197266,26.434526764861875
53430,0.13501922607421876,-0.45220962524414066,9.898466033935547,38.9707700320942
53496,0.14340179443359377,-0.4507127380371094,9.892179107666015,38.77831891492894
53565,0.13127700805664064,-0.4474195861816406,9.88274871826172,17.075701760979364
53630,0.13561798095703126,-0.4505630493164063,9.896969146728516,36.7449371729635
53696,0.1381626892089844,-0.46538223266601564,9.888436889648437,21.43014800254095
53764,0.14100677490234376,-0.44846740722656253,9.889035644531251,16.434526764861875
53829,0.143701171875,-0.4477189636230469,9.895621948242187,12.041199826559248
53896,0.13936019897460938,-0.4643344116210938,9.896520080566408,13.222192947339193
53964,0.13786331176757813,-0.45834686279296877,9.880802764892579,16.62757831681574
54030,0.13561798095703126,-0.45954437255859376,9.889335021972657,14.62397997898956
54096,0.12648696899414064,-0.4616400146484375,9.892478485107423,16.532125137753436
54164,0.14145584106445314,-0.45834686279296877,9.884095916748047,15.051499783199061
54229,0.14175521850585937,-0.4525090026855469,9.89427474975586,37.384634394619525
54296,0.13097763061523438,-0.4532574462890625,9.895172882080079,30.681858617461618
54364,0.14325210571289063,-0.44801834106445315,9.901908874511719,16.901960800285135
54430,0.14504837036132814,-0.45655059814453125,9.893376617431642,29.614210940664485
54496,0.13127700805664064,-0.45295806884765627,9.896220703125001,35.64310909960603
54564,0.13696517944335937,-0.4567002868652344,9.895322570800781,31.972805581256193
54629,0.13546829223632814,-0.456251220703125,9.89861572265625,24.440447959180762
54696,0.14385086059570312,-0.45520339965820317,9.888436889648437,16.901960800285135
54765,0.13621673583984376,-0.4550537109375,9.894424438476562,21.13943352306837
54831,0.14055770874023438,-0.4517605590820313,9.899214477539063,36.650178254124725
54896,0.12663665771484375,-0.44996429443359376,9.896969146728516,20.453229787866576
54964,0.1395098876953125,-0.45340713500976565,9.887987823486329,29.62842681201242
55029,0.13696517944335937,-0.44726989746093754,9.890532531738282,33.121773564397785
55096,0.13606704711914064,-0.4567002868652344,9.902507629394531,31.132746924643506
55164,0.13621673583984376,-0.45161087036132813,9.885443115234375,38.124454028727556
55230,0.13696517944335937,-0.45235931396484375,9.889784088134766,39.46157394922373
55296,0.13576766967773438,-0.456251220703125,9.898765411376953,41.359273350054686
55364,0.1381626892089844,-0.4519102478027344,9.895771636962891,45.28428165537636
55430,0.13412109375,-0.4567002868652344,9.893077239990236,28.215135284047733
55496,0.15043716430664064,-0.45759841918945315,9.887389068603516,18.19543935541869
55564,0.13651611328125002,-0.45460464477539064,9.884395294189453,15.185139398778876
55633,0.14265335083007813,-0.43529479980468755,9.898316345214845,14.313637641589875
55696,0.13681549072265625,-0.4589456176757813,9.898316345214845,10.413926851582252
55765,0.13786331176757813,-0.4439767456054688,9.891280975341797,38.69231719730976
55830,0.14504837036132814,-0.4550537109375,9.90624984741211,47.73113278887338
55896,0.1407073974609375,-0.45161087036132813,9.898915100097657,49.33841462898721
55964,0.1442999267578125,-0.4596940612792969,9.889335021972657,48.0117037700944
56029,0.14175521850585937,-0.45265869140625004,9.901310119628906,45.896480583356606
56096,0.13606704711914064,-0.449066162109375,9.899813232421875,39.773577295453016
56164,0.14265335083007813,-0.45744873046875,9.895023193359375,25.538830266438744
56229,0.13980926513671876,-0.4505630493164063,9.892478485107423,14.14973347970818
56296,0.13741424560546875,-0.45520339965820317,9.88708969116211,6.989700043360188
56364,0.1347198486328125,-0.45804748535156253,9.889784088134766,10.0
56430,0.13741424560546875,-0.45804748535156253,9.895771636962891,10.79181246047625
56496,0.14205459594726563,-0.4549040222167969,9.890382843017578,16.532125137753436
56564,0.14100677490234376,-0.4495152282714844,9.899364166259765,15.563025007672874
56630,0.1431024169921875,-0.45265869140625004,9.890233154296876,10.79181246047625
56696,0.13636642456054687,-0.4423301696777344,9.899364166259765,33.265406685165615
56765,0.13726455688476563,-0.44921585083007814,9.892628173828125,31.97004728023046
56829,0.1442999267578125,-0.4620890808105469,9.89906478881836,32.20369632451395
56896,0.13367202758789062,-0.45146118164062504,9.89232879638672,29.49877704036875
56970,0.14130615234375002,-0.4655319213867188,9.901908874511719,34.189638307036226
57029,0.13921051025390627,-0.45759841918945315,9.891730041503907,21.78976947293169
57096,0.13427078247070312,-0.44996429443359376,9.914482727050782,31.341771075767664
57164,0.14115646362304687,-0.46478347778320317,9.930649108886719,33.829171350875306
57229,0.13457015991210938,-0.4507127380371094,9.918075256347656,27.993405494535818
57296,0.14400054931640627,-0.44697052001953125,9.934391326904297,27.291647896927703
57365,0.12334350585937501,-0.4517605590820313,9.920320587158203,22.833012287035498
57430,0.14130615234375002,-0.4513114929199219,9.874515838623047,41.102866084035654
57496,0.13262420654296875,-0.439486083984375,9.893376617431642,47.75937956533937
57564,0.144898681640625,-0.45939468383789067,9.866582336425783,41.575172085326116
57629,0.13127700805664064,-0.4604425048828125,9.886790313720704,43.44863649797128
57696,0.12214599609375,-0.45385620117187503,9.81763412475586,33.16599302093861
57765,0.16166381835937502,-0.42691223144531254,9.919871520996095,38.082785095827674
57829,0.11900253295898439,-0.4327500915527344,9.935289459228516,28.06179973983887
57896,0.1627116394042969,-0.47301635742187503,9.831704864501953,36.58488381309017
57964,0.1435514831542969,-0.44607238769531254,9.897867279052734,28.65103974641128
58030,0.12034973144531251,-0.4590953063964844,9.919871520996095,36.188844849954506
58096,0.14759307861328125,-0.4537065124511719,9.884844360351563,30.354297381845484
58165,0.1149609375,-0.4528083801269531,9.919572143554689,24.94154594018443
58229,0.15597564697265626,-0.4454736328125,9.92541000366211,35.786392099680725
58296,0.132923583984375,-0.4613406372070313,9.907297668457032,28.90979596989689
58364,0.13367202758789062,-0.44846740722656253,9.92541000366211,41.52135396861876
58429,0.143701171875,-0.4555027770996094,9.902357940673829,44.21077190017022
58496,0.12543914794921876,-0.4656816101074219,9.9249609375,27.101173651118163
58564,0.14205459594726563,-0.458646240234375,9.915979614257813,24.14973347970818
58629,0.12379257202148439,-0.4528083801269531,9.897717590332032,32.37794993273922
58696,0.13936019897460938,-0.4513114929199219,9.90669891357422,36.855626111582296
58765,0.1573228454589844,-0.45999343872070314,9.914632415771484,35.82177037688409
58829,0.12648696899414064,-0.4578977966308594,9.89951385498047,18.129133566428553
58896,0.149688720703125,-0.45101211547851566,9.900711364746094,26.159500516564012
58965,0.13427078247070312,-0.44622207641601563,9.91867401123047,15.797835966168101
59029,0.1389111328125,-0.45460464477539064,9.884844360351563,12.30448921378274
59096,0.1435514831542969,-0.4501139831542969,9.899813232421875,11.760912590556813
59165,0.12259506225585938,-0.44158172607421875,9.894424438476562,33.58505911490235
59230,0.1502874755859375,-0.4535568237304688,9.871072998046875,43.5042247660771
59296,0.137713623046875,-0.45744873046875,9.889784088134766,30.519239160461066
59370,0.13412109375,-0.4343966674804688,9.885892181396486,20.606978403536118
59430,0.15103591918945314,-0.4513114929199219,9.88379653930664,16.812412373755873
59496,0.14415023803710938,-0.45655059814453125,9.898915100097657,21.986570869544227
59570,0.13217514038085937,-0.44622207641601563,9.895023193359375,26.866362692622936
59630,0.14474899291992188,-0.45610153198242187,9.884844360351563,16.532125137753436
59696,0.12469070434570313,-0.44756927490234377,9.9010107421875,12.30448921378274
59764,0.1375639343261719,-0.44023452758789067,9.871522064208985,16.532125137753436
59831,0.14220428466796875,-0.45385620117187503,9.880653076171875,13.424226808222063
59896,0.13247451782226563,-0.45759841918945315,9.882449340820314,9.030899869919436
59964,0.1381626892089844,-0.44262954711914065,9.879156188964844,13.617278360175929
60030,0.13726455688476563,-0.4540058898925782,9.898016967773438,19.86771734266245
60096,0.147293701171875,-0.45146118164062504,9.891730041503907,34.98861688992884
60164,0.140108642578125,-0.4559518432617188,9.864337005615235,42.26522575863549
60232,0.1431024169921875,-0.4501139831542969,9.878856811523438,41.39123134109579
60296,0.13606704711914064,-0.44981460571289067,9.896520080566408,30.74816440645175
60365,0.132923583984375,-0.458646240234375,9.880653076171875,25.07855871695831
60430,0.14759307861328125,-0.46643005371093754,9.893975372314454,17.558748556724915
60496,0.13666580200195313,-0.4405339050292969,9.888885955810547,15.797835966168101
60565,0.13846206665039062,-0.4601431274414063,9.897867279052734,15.910646070264994
60630,0.14145584106445314,-0.4451742553710938,9.90864486694336,12.30448921378274
60696,0.15193405151367187,-0.44442581176757817,9.888586578369141,14.313637641589875
60765,0.13786331176757813,-0.45220962524414066,9.888287200927735,10.0
60831,0.14474899291992188,-0.4474195861816406,9.906848602294922,8.45098040014257
60896,0.13711486816406251,-0.4519102478027344,9.880952453613281,6.989700043360188
60965,0.14160552978515625,-0.4517605590820313,9.901908874511719,46.58802904446173
61029,0.13322296142578124,-0.4525090026855469,9.904752960205078,34.94432898726399
61096,0.14160552978515625,-0.4507127380371094,9.896819458007814,50.506735694135834
61165,0.140108642578125,-0.44981460571289067,9.889634399414064,45.885630067147034
61231,0.13112731933593752,-0.4423301696777344,9.898016967773438,50.2465803772477
61296,0.1359173583984375,-0.45220962524414066,9.893226928710938,40.28205119905443
61364,0.13696517944335937,-0.449066162109375,9.898765411376953,37.95045370421125
61429,0.14175521850585937,-0.44068359375000005,9.876910858154297,33.70883016777606
61496,0.14115646362304687,-0.45041336059570314,9.889784088134766,27.774268223893117
61564,0.13921051025390627,-0.45565246582031255,9.909842376708985,27.291647896927703
61629,0.13501922607421876,-0.44846740722656253,9.909243621826173,24.771212547196626
61696,0.14639556884765625,-0.4578977966308594,9.900411987304688,37.81827152932428
61765,0.13711486816406251,-0.4572990417480469,9.89711883544922,28.920946026904804
61831,0.14100677490234376,-0.4375401306152344,9.902657318115235,28.318697742805018
61896,0.13427078247070312,-0.44921585083007814,9.89098159790039,26.283889300503116
61965,0.13726455688476563,-0.4567002868652344,9.894574127197266,27.193312869837264
62031,0.12888198852539062,-0.446671142578125,9.896520080566408,17.075701760979364
62096,0.14085708618164064,-0.4590953063964844,9.90430389404297,14.62397997898956
62165,0.13995895385742188,-0.46717849731445316,9.917326812744141,16.232492903979004
62230,0.13546829223632814,-0.4508624267578125,9.899813232421875,35.748411950633844
62296,0.14190490722656252,-0.46343627929687503,9.892029418945313,31.676126727275303
62364,0.13097763061523438,-0.45699966430664063,9.89816665649414,39.05256048748451
62430,0.1359173583984375,-0.4547543334960938,9.894574127197266,28.260748027008265
62496,0.13936019897460938,-0.4390370178222657,9.892179107666015,29.4546858513182
62565,0.11481124877929688,-0.46223876953125004,9.88993377685547,33.484995702838376
62630,0.15238311767578125,-0.43499542236328126,9.902956695556641,33.12388949370592
62696,0.13516891479492188,-0.4571493530273438,9.872120819091798,23.30413773349191
62765,0.13995895385742188,-0.45610153198242187,9.87750961303711,13.424226808222063
62830,0.15088623046875002,-0.4448748779296875,9.893077239990236,24.099331233312945
62896,0.12903167724609377,-0.43484573364257817,9.906100158691407,43.62218500326052
62965,0.13980926513671876,-0.4793032836914063,9.900411987304688,41.90387732552913
63030,0.14385086059570312,-0.43484573364257817,9.932894439697266,27.543483357110187
63096,0.13965957641601562,-0.44382705688476565,9.904752960205078,24.517864355242903
63164,0.14055770874023438,-0.4716691589355469,9.934391326904297,25.105450102066122
63230,0.12259506225585938,-0.4507127380371094,9.928553466796876,24.913616938342727
63296,0.1526824951171875,-0.44262954711914065,9.88424560546875,17.16003343634799
63364,0.11061996459960938,-0.4763095092773438,9.930948486328125,8.45098040014257
63430,0.14938934326171877,-0.4291575622558594,9.909842376708985,11.139433523068368
63496,0.1239422607421875,-0.4397854614257813,9.890532531738282,12.78753600952829
63564,0.1335223388671875,-0.4677772521972656,9.911189575195314,9.030899869919436
63631,0.15896942138671877,-0.43349853515625003,9.904902648925782,6.989700043360188
63696,0.10837463378906251,-0.44562332153320316,9.911788330078126,10.79181246047625
63765,0.1633103942871094,-0.4655319213867188,9.888586578369141,12.78753600952829
63829,0.13022918701171876,-0.44786865234375,9.895322570800781,21.271047983648078
63896,0.1347198486328125,-0.4531077575683594,9.917626190185548,33.60404054729939
63967,0.1730401611328125,-0.4632865905761719,9.863588562011719,33.654879848909
64029,0.11960128784179688,-0.4343966674804688,9.871671752929688,49.54801906348716
64096,0.16181350708007813,-0.45879592895507815,9.82002914428711,48.50817713955259
64164,0.13651611328125002,-0.4355941772460938,9.905950469970703,45.87093311633927
64230,0.10403366088867189,-0.44038421630859376,9.896520080566408,55.02313751597669
64296,0.17663269042968752,-0.46478347778320317,9.873917083740235,48.386602259889415
64364,0.09954299926757813,-0.4421804809570313,9.91867401123047,40.19573202095639
64430,0.16390914916992189,-0.4517605590820313,9.784403228759766,42.09783014848515
64496,0.13486953735351564,-0.4550537109375,9.829758911132814,29.360107957152096
64565,0.124541015625,-0.43664199829101563,9.889784088134766,53.13860895646179
64630,0.1531315612792969,-0.4496649169921875,9.865833892822266,49.90032342567082
64696,0.14220428466796875,-0.47675857543945316,9.908495178222656,38.369567370595504
64765,0.12588821411132814,-0.43739044189453125,9.895771636962891,33.58505911490235
64830,0.18097366333007814,-0.4397854614257813,9.867330780029297,50.4768754313961
64896,0.096998291015625,-0.47062133789062505,9.923613739013673,43.13719619495093
64964,0.17438735961914065,-0.4303550720214844,9.86224136352539,38.08953299155911
65030,0.12708572387695313,-0.4486170959472656,9.880353698730469,27.75974331129369
65096,0.12918136596679688,-0.47331573486328127,9.897717590332032,52.987352116634014
65164,0.16076568603515626,-0.4363426208496094,9.902807006835937,42.0980980578538
65230,0.1023870849609375,-0.4608915710449219,9.921368408203126,45.99206005430532
65296,0.16031661987304688,-0.4602928161621094,9.884395294189453,47.70822566950319
65364,0.15612533569335937,-0.4321513366699219,9.905950469970703,33.296012483565185
65430,0.08547225952148438,-0.4496649169921875,9.882000274658203,22.121876044039578
65496,0.19160156250000002,-0.46613067626953125,9.904154205322266,37.068883949816176
65565,0.09116043090820312,-0.43349853515625003,9.928403778076172,45.78215021456322
65632,0.15058685302734376,-0.4547543334960938,9.876312103271484,44.848690327204025
65696,0.14504837036132814,-0.4673281860351563,9.918075256347656,45.410922616844246
65765,0.09924362182617188,-0.4327500915527344,9.920170898437501,52.5426522233333
65830,0.17184265136718752,-0.46059219360351566,9.850865020751954,38.11976944336954
65896,0.09595046997070313,-0.4631369018554688,9.977950744628906,40.53270566681378
65964,0.16241226196289063,-0.44083328247070314,9.888586578369141,33.68100851709352
66030,0.13157638549804687,-0.4602928161621094,9.912237396240235,46.83101096428065
66096,0.12379257202148439,-0.46657974243164063,9.921817474365234,46.90886856282724
66164,0.17663269042968752,-0.4439767456054688,9.878258056640625,32.723058444020864
66230,0.09654922485351564,-0.46418472290039064,9.905202026367188,21.2057393120585
66296,0.18546432495117188,-0.45146118164062504,9.880952453613281,15.185139398778876
66365,0.11391311645507814,-0.4417314147949219,9.891580352783203,10.0
66430,0.16061599731445314,-0.4698728942871094,9.916278991699219,11.46128035678238
66496,0.13741424560546875,-0.4519102478027344,9.95938934326172,14.14973347970818
66564,0.11555969238281251,-0.4454736328125,9.93648696899414,38.2865989653532
66630,0.15941848754882812,-0.4662803649902344,9.842033386230469,49.58458760724761
66696,0.13636642456054687,-0.4293072509765625,9.884694671630859,53.71224919107688
66765,0.14654525756835937,-0.45340713500976565,9.858050079345704,41.784013415337554
66830,0.12169692993164063,-0.45759841918945315,9.917177124023437,33.324384599156055
66896,0.13217514038085937,-0.44876678466796877,9.865833892822266,31.370374547895125
66965,0.16420852661132812,-0.4626878356933594,9.86074447631836,26.424645202421214
67030,0.10523117065429688,-0.44876678466796877,9.930349731445313,31.743505974793802
67096,0.1646575927734375,-0.44726989746093754,9.954299926757812,48.99437454286178
67165,0.12633728027343752,-0.4697232055664063,9.952353973388673,46.25898661441019
67231,0.14998809814453126,-0.45744873046875,9.937085723876953,31.316186643491257
67296,0.1531315612792969,-0.4339476013183594,9.893077239990236,50.683862591112046
67365,0.13097763061523438,-0.4632865905761719,9.903705139160158,45.760763151581315
67430,0.1429527282714844,-0.45295806884765627,9.895472259521485,47.98747298008127
67496,0.14385086059570312,-0.44562332153320316,9.883497161865234,49.225178602446114
67564,0.13382171630859377,-0.45146118164062504,9.940678253173829,51.757523771786765
67630,0.14594650268554688,-0.45984375,9.899813232421875,51.74542412113843
67696,0.12948074340820312,-0.4520599365234375,9.909992065429687,31.679078100014802
67765,0.1423539733886719,-0.47032196044921876,9.930050354003907,36.94956002249818
67831,0.12588821411132814,-0.4596940612792969,9.945617980957032,22.69512944217916
67896,0.13442047119140627,-0.45041336059570314,9.895921325683593,44.094258686714426
67965,0.14040802001953126,-0.4668791198730469,9.89861572265625,44.72522422916882
68030,0.12903167724609377,-0.4578977966308594,9.881700897216797,31.94514341882467
68096,0.16001724243164064,-0.4513114929199219,9.864187316894531,51.34212181338866
68164,0.13127700805664064,-0.4638853454589844,9.903705139160158,41.91283300818515
68229,0.14699432373046875,-0.4453239440917969,9.87750961303711,53.279471326421366
68296,0.15058685302734376,-0.45235931396484375,9.88229965209961,53.24636333124836
68364,0.11331436157226563,-0.4640350341796875,9.88948471069336,42.955231185474936
68429,0.16839981079101562,-0.45101211547851566,9.860894165039063,46.65899794330944
68496,0.11106903076171876,-0.45460464477539064,9.898466033935547,39.77952121201462
68564,0.15178436279296875,-0.45640090942382816,9.896220703125001,38.18819507547536
68630,0.13741424560546875,-0.45295806884765627,9.889784088134766,40.829647937777516
68696,0.12484039306640625,-0.45834686279296877,9.871971130371094,49.45443964565363
68764,0.15672409057617187,-0.44577301025390625,9.879305877685548,44.32648660013107
68830,0.10687774658203125,-0.4577481079101563,9.901160430908204,31.939589780191866
68896,0.16076568603515626,-0.4501139831542969,9.870025177001954,50.20485585796551
68965,0.1435514831542969,-0.44801834106445315,9.869725799560547,50.19058103556509
69029,0.13367202758789062,-0.44726989746093754,9.876162414550782,43.84729651619834
69096,0.15762222290039063,-0.4535568237304688,9.8914306640625,38.197412972730106
69165,0.12409194946289064,-0.44188110351562504,9.903256072998047,26.473829701146197
69231,0.1550775146484375,-0.4447251892089844,9.878557434082031,17.075701760979364
69296,0.12648696899414064,-0.44697052001953125,9.902507629394531,14.471580313422193
69364,0.14205459594726563,-0.44113265991210937,9.893226928710938,14.471580313422193
69429,0.14669494628906252,-0.45610153198242187,9.883048095703126,13.617278360175929
69496,0.11795471191406251,-0.4614903259277344,9.909093933105469,15.797835966168101
69564,0.1537303161621094,-0.444276123046875,9.891580352783203,45.25459457486679
69630,0.1215472412109375,-0.45954437255859376,9.907597045898438,34.58939861890326
69696,0.1435514831542969,-0.46792694091796877,9.883048095703126,41.51492428425498
69764,0.13696517944335937,-0.4412823486328125,9.896520080566408,48.61970278681109
69830,0.142503662109375,-0.4540058898925782,9.893526306152344,44.626076067128515
69896,0.13307327270507813,-0.4592449951171875,9.91777587890625,33.17645543221158
69964,0.13621673583984376,-0.44697052001953125,9.891730041503907,33.75663613960886
70029,0.15163467407226563,-0.45235931396484375,9.869127044677734,33.04705898212765
70096,0.1333726501464844,-0.456251220703125,9.895621948242187,46.52884256142734
70165,0.144898681640625,-0.44786865234375,9.883497161865234,28.46955325019824
70232,0.12903167724609377,-0.46702880859375,9.903555450439454,33.592661646067484
70296,0.14444961547851562,-0.45984375,9.896520080566408,49.281499555915225
70364,0.15103591918945314,-0.4465214538574219,9.89277786254883,42.66701966884088
70430,0.11555969238281251,-0.44622207641601563,9.901908874511719,36.503075231319364
70496,0.16181350708007813,-0.45744873046875,9.863738250732423,38.92873406888766
70564,0.14130615234375002,-0.4544549560546875,9.880353698730469,38.1110560701793
70629,0.1149609375,-0.4448748779296875,9.900561676025392,29.661417327390325
70696,0.17064514160156252,-0.44697052001953125,9.874815216064453,46.061555592866796
70764,0.10328521728515626,-0.45220962524414066,9.901759185791017,38.46646328577117
70829,0.15328125,-0.45385620117187503,9.902208251953125,45.00771463910624
70896,0.11526031494140626,-0.4559518432617188,9.940229187011719,49.91199485420423
70964,0.12723541259765625,-0.4549040222167969,9.896819458007814,33.39053735709139
71030,0.16510665893554688,-0.4448748779296875,9.927655334472657,41.62265614298022
71096,0.12528945922851564,-0.46223876953125004,9.917925567626954,37.4499667403856
71164,0.15567626953125,-0.44502456665039064,9.989327087402344,35.519376953648376
71230,0.11541000366210938,-0.4677772521972656,9.9249609375,21.903316981702915
71296,0.15911911010742188,-0.4528083801269531,9.932744750976562,12.78753600952829
71364,0.11660751342773439,-0.4577481079101563,9.91253677368164,38.522969658269254
71430,0.15837066650390627,-0.44607238769531254,9.931397552490235,50.33327234877173
71496,0.11720626831054688,-0.47136978149414066,9.954299926757812,41.33283365860989
71565,0.1454974365234375,-0.42586441040039064,9.930050354003907,34.26673888021373
71630,0.14025833129882814,-0.47601013183593754,9.88424560546875,30.806264869218055
71696,0.12768447875976563,-0.4700225830078125,9.902208251953125,21.818435879447726
71765,0.16136444091796875,-0.44607238769531254,9.867330780029297,13.424226808222063
71830,0.13157638549804687,-0.4643344116210938,9.87750961303711,15.440680443502757
71896,0.15073654174804688,-0.4709207153320313,9.868977355957032,9.542425094393248
71964,0.14100677490234376,-0.4363426208496094,9.888287200927735,12.041199826559248
72030,0.14280303955078125,-0.4535568237304688,9.927206268310547,12.78753600952829
72096,0.12633728027343752,-0.4640350341796875,9.915231170654298,38.60098329698518
72164,0.1754351806640625,-0.42107437133789066,9.845176849365235,28.58537197569639
72230,0.10223739624023438,-0.45580215454101564,9.856553192138673,29.656719712201067
72296,0.19235000610351563,-0.4589456176757813,9.879156188964844,55.814672201534556
72364,0.11121871948242187,-0.4571493530273438,9.908495178222656,47.14329759745233
72430,0.11900253295898439,-0.44726989746093754,9.887987823486329,40.03675902548785
72496,0.16989669799804688,-0.46792694091796877,9.906998291015626,38.89133555966724
72565,0.08292755126953126,-0.4385879516601563,9.912836151123047,48.39069329186813
72629,0.19399658203125,-0.4577481079101563,9.899663543701172,46.47167725824425
72696,0.08352630615234376,-0.46343627929687503,9.96657440185547,41.32963726130726
72764,0.14624588012695314,-0.45759841918945315,9.929900665283204,41.708188980336686
72831,0.1579216003417969,-0.45220962524414066,9.909093933105469,44.274861090957856
72896,0.10223739624023438,-0.4317022705078125,9.96522720336914,38.18291890799996
72965,0.17947677612304688,-0.48334487915039065,9.892927551269532,34.44825199509748
73030,0.10014175415039063,-0.437091064453125,9.935888214111328,25.877109650189112
73096,0.1633103942871094,-0.4336482238769531,9.864337005615235,47.01956345192804
73164,0.15941848754882812,-0.46104125976562504,9.87661148071289,32.29681842317676
73230,0.11541000366210938,-0.4721182250976563,9.89861572265625,27.481880270062003
73296,0.19654129028320313,-0.42032592773437505,9.867630157470703,40.57856208741888
73365,0.082628173828125,-0.47062133789062505,9.907147979736328,38.6123561863404
73431,0.16585510253906252,-0.4543052673339844,9.885443115234375,41.24308552615652
73496,0.1323248291015625,-0.43604324340820316,9.89906478881836,28.920946026904804
73564,0.1197509765625,-0.4613406372070313,9.908345489501954,40.86715663944882
73630,0.168848876953125,-0.47660888671875,9.910141754150391,47.15635708128531
73696,0.10313552856445313,-0.42002655029296876,9.95804214477539,37.236198355154634
73764,0.1669029235839844,-0.4643344116210938,9.89277786254883,51.60204332498958
73830,0.12543914794921876,-0.46343627929687503,9.936337280273438,43.20914453045575
73896,0.13022918701171876,-0.4213737487792969,9.896969146728516,45.00469756225069
73964,0.1627116394042969,-0.46957351684570314,9.874366149902345,45.83504826704517
74030,0.10882369995117189,-0.4614903259277344,9.913734283447265,49.5035024781384
74096,0.16795074462890625,-0.43649230957031254,9.879305877685548,41.49095891067972
74164,0.13157638549804687,-0.4571493530273438,9.914333038330078,43.79631796019372
74229,0.14145584106445314,-0.4614903259277344,9.912387084960939,47.441286243840175
74296,0.16795074462890625,-0.44442581176757817,9.87750961303711,44.52277233126352
74365,0.11406280517578125,-0.46193939208984375,9.90535171508789,36.04442066260723
74429,0.15597564697265626,-0.4393363952636719,9.89382568359375,21.4921911265538
74496,0.12903167724609377,-0.44023452758789067,9.88424560546875,38.271753482986924
74568,0.1333726501464844,-0.46373565673828127,9.885742492675782,48.74586174995811
74629,0.14624588012695314,-0.4537065124511719,9.897268524169922,39.9334803992326
74696,0.12828323364257813,-0.44697052001953125,9.878707122802735,38.51930678640267
74767,0.14609619140625002,-0.4571493530273438,9.894424438476562,47.28053324919776
74829,0.1454974365234375,-0.4517605590820313,9.900411987304688,51.169595526406994
74896,0.13846206665039062,-0.4698728942871094,9.876910858154297,41.887035481184284
74964,0.13307327270507813,-0.4501139831542969,9.899214477539063,43.45138383110101
75029,0.13980926513671876,-0.4357438659667969,9.89711883544922,32.80122896302308
75096,0.1381626892089844,-0.46343627929687503,9.87945556640625,39.64448207916661
75167,0.14400054931640627,-0.4812492370605469,9.886790313720704,35.2543355342882
75229,0.13636642456054687,-0.4206253051757813,9.904902648925782,32.53822438708073
75296,0.13861175537109377,-0.4704716491699219,9.868079223632813,46.79100689670424
75365,0.15148498535156252,-0.46493316650390626,9.915680236816407,39.003124969837266
75429,0.1395098876953125,-0.43304946899414065,9.899364166259765,35.01333178645566
75496,0.1484912109375,-0.46418472290039064,9.8914306640625,38.00235789327354
75566,0.12648696899414064,-0.47601013183593754,9.954748992919923,19.084850188786497
75629,0.15193405151367187,-0.4385879516601563,9.907147979736328,33.998467127129224
75696,0.12229568481445313,-0.4493655395507813,9.909093933105469,33.725438007590704
75768,0.13936019897460938,-0.47750701904296877,9.919123077392578,27.21810615212547
75829,0.13936019897460938,-0.4429289245605469,9.933343505859375,38.14580516010318
75896,0.12888198852539062,-0.4590953063964844,9.894723815917969,36.68012971641832
75968,0.16016693115234376,-0.4644841003417969,9.915530548095704,24.638929889859075
76029,0.12349319458007812,-0.4439767456054688,9.910291442871094,28.937617620579434
76096,0.14759307861328125,-0.4544549560546875,9.896819458007814,35.08664363052943
76167,0.1483415222167969,-0.4626878356933594,9.922416229248048,29.91226075692495
76229,0.13846206665039062,-0.4481680297851563,9.9010107421875,21.105897102992486
76296,0.14983840942382814,-0.4577481079101563,9.883048095703126,18.692317197309762
76367,0.12064910888671876,-0.4495152282714844,9.901609497070313,18.45098040014257
76429,0.1550775146484375,-0.4540058898925782,9.879006500244142,16.020599913279625
76496,0.13696517944335937,-0.4602928161621094,9.905950469970703,11.760912590556813
76567,0.14085708618164064,-0.44502456665039064,9.907297668457032,28.926510338773003
76629,0.14998809814453126,-0.45265869140625004,9.870923309326173,55.47724260322945
76696,0.12768447875976563,-0.46957351684570314,9.90669891357422,39.441370731580975
76768,0.14894027709960939,-0.434696044921875,9.87990463256836,27.007037171450193
76829,0.1323248291015625,-0.46074188232421875,9.87511459350586,53.31072832398772
76896,0.13457015991210938,-0.45939468383789067,9.916129302978517,44.974134646862055
76968,0.14444961547851562,-0.4397854614257813,9.868079223632813,37.5495958772171
77029,0.1333726501464844,-0.46717849731445316,9.895322570800781,37.76919002842047
77096,0.15402969360351562,-0.4623884582519531,9.909692687988281,40.11147360775798
77168,0.1383123779296875,-0.439486083984375,9.891131286621095,37.919712010207675
77229,0.13382171630859377,-0.46657974243164063,9.86313949584961,31.099158630237934
77296,0.14923965454101562,-0.45415557861328126,9.896819458007814,39.880682033926355
77367,0.1381626892089844,-0.439486083984375,9.894574127197266,23.138672203691534
77429,0.1502874755859375,-0.45415557861328126,9.877808990478517,31.49527013754348
77496,0.13501922607421876,-0.46074188232421875,9.89996292114258,19.777236052888476
77567,0.14220428466796875,-0.43260040283203127,9.884844360351563,34.82444791918265
77629,0.13921051025390627,-0.46613067626953125,9.884095916748047,32.69512944217916
77696,0.14175521850585937,-0.4614903259277344,9.90669891357422,19.68482948553935
77768,0.14100677490234376,-0.43739044189453125,9.89098159790039,31.293675957229855
77829,0.1442999267578125,-0.46119094848632813,9.883497161865234,16.434526764861875
77896,0.14055770874023438,-0.4689747619628907,9.887838134765625,13.617278360175929
77968,0.13561798095703126,-0.44023452758789067,9.878258056640625,30.89198366805149
78029,0.14654525756835937,-0.44607238769531254,9.857451324462891,18.573324964312683
78096,0.1423539733886719,-0.4501139831542969,9.87511459350586,43.23705757617709
78168,0.14744338989257813,-0.4477189636230469,9.867031402587891,39.59327645972171
78229,0.1478924560546875,-0.44697052001953125,9.879754943847656,50.13115421368239
78296,0.1395098876953125,-0.4505630493164063,9.890233154296876,49.661182567271396
78367,0.14265335083007813,-0.4571493530273438,9.870773620605469,48.80756444510211
78429,0.12379257202148439,-0.4520599365234375,9.920021209716797,40.8289303328818
78496,0.15837066650390627,-0.45565246582031255,9.886191558837892,22.405492482826
78565,0.116158447265625,-0.4555027770996094,9.880503387451173,22.7415784926368
78629,0.16450790405273438,-0.44921585083007814,9.887239379882812,22.624510897304294
78696,0.11121871948242187,-0.4439767456054688,9.902956695556641,14.913616938342727
78768,0.1395098876953125,-0.47690826416015625,9.894125061035156,12.78753600952829
78829,0.13247451782226563,-0.4357438659667969,9.942324829101564,41.29979754669709
78896,0.15971786499023438,-0.45295806884765627,9.87661148071289,51.86314868158167
78967,0.16316070556640624,-0.47136978149414066,9.90385482788086,30.16197353512439
79029,0.11106903076171876,-0.4520599365234375,9.940678253173829,34.727564493172125
79096,0.16525634765625,-0.42840911865234377,9.884844360351563,28.518696007297663
79168,0.1071771240234375,-0.4662803649902344,9.918823699951172,49.8808605869346
79229,0.15672409057617187,-0.4507127380371094,9.90819580078125,48.578268281501636
79296,0.13097763061523438,-0.4340972900390625,9.880204010009766,47.11942134527064
79368,0.13112731933593752,-0.4620890808105469,9.912985839843751,41.83981218914592
79429,0.16630416870117187,-0.4493655395507813,9.877359924316407,33.65300748637988
79496,0.11990066528320313,-0.4358935546875,9.895322570800781,25.465426634781313
79567,0.15762222290039063,-0.4816983032226563,9.884994049072267,40.77549580451794
79629,0.13082794189453126,-0.44562332153320316,9.910441131591798,42.54354692053166
79696,0.14474899291992188,-0.45146118164062504,9.873917083740235,29.31457870689005
79767,0.15223342895507813,-0.46538223266601564,9.910890197753906,27.715874808812554
79829,0.1239422607421875,-0.45385620117187503,9.922715606689454,24.216039268698314
79896,0.1634600830078125,-0.439486083984375,9.877359924316407,43.31993838042257
79965,0.1327738952636719,-0.4763095092773438,9.899214477539063,41.825002473792
80029,0.13906082153320312,-0.437091064453125,9.877659301757813,28.561244442423003
80096,0.1490899658203125,-0.4477189636230469,9.882898406982422,34.7158505418519
80168,0.13097763061523438,-0.4543052673339844,9.895023193359375,39.58324931644053
80229,0.15283218383789063,-0.4471202087402344,9.920769653320313,30.390173219974116
80296,0.13442047119140627,-0.4507127380371094,9.881401519775391,31.172712956557646
80368,0.14609619140625002,-0.44876678466796877,9.883347473144532,36.72559627763276
80429,0.12304412841796876,-0.44442581176757817,9.869576110839844,34.294292643817876
80496,0.14938934326171877,-0.43798919677734377,9.850415954589844,32.412973871099936
80568,0.1490899658203125,-0.46717849731445316,9.887987823486329,38.48312303627284
80629,0.14699432373046875,-0.4535568237304688,9.873318328857422,31.389339402569234
80696,0.16540603637695314,-0.4519102478027344,9.842033386230469,37.73640193260026
80767,0.11825408935546876,-0.45879592895507815,9.890831909179688,12.041199826559248
80829,0.16121475219726564,-0.4528083801269531,9.870923309326173,14.471580313422193
80896,0.12618759155273437,-0.4549040222167969,9.893376617431642,12.30448921378274
80968,0.13322296142578124,-0.46104125976562504,9.890532531738282,9.542425094393248
81029,0.14564712524414064,-0.4519102478027344,9.864636383056641,11.46128035678238
81096,0.12259506225585938,-0.45655059814453125,9.904154205322266,12.041199826559248
81168,0.15642471313476564,-0.4481680297851563,9.893077239990236,14.913616938342727
81229,0.12723541259765625,-0.4436773681640625,9.912387084960939,11.760912590556813
81296,0.1381626892089844,-0.4519102478027344,9.898016967773438,11.139433523068368
81368,0.14998809814453126,-0.4531077575683594,9.897567901611328,12.30448921378274
81429,0.13262420654296875,-0.4535568237304688,9.904902648925782,11.760912590556813
81496,0.15612533569335937,-0.4623884582519531,9.89666976928711,10.0
81568,0.13097763061523438,-0.45041336059570314,9.890233154296876,14.913616938342727
81629,0.15492782592773438,-0.4496649169921875,9.874964904785157,19.030899869919434
81696,0.142503662109375,-0.45220962524414066,9.876910858154297,13.222192947339193
81768,0.13067825317382814,-0.44786865234375,9.874964904785157,16.901960800285135
81829,0.15013778686523438,-0.4495152282714844,9.865384826660156,28.169038393756605
81896,0.11900253295898439,-0.46178970336914066,9.901759185791017,49.36493635787443
81967,0.15328125,-0.4513114929199219,9.874964904785157,55.04117302136429
82029,0.13965957641601562,-0.46762756347656254,9.884844360351563,52.340665577591345
82096,0.12588821411132814,-0.4601431274414063,9.909393310546875,51.466178916553346
82168,0.16570541381835938,-0.4439767456054688,9.879605255126954,53.64288275614436
82229,0.12663665771484375,-0.4608915710449219,9.89711883544922,53.00021261881802
82296,0.14624588012695314,-0.4589456176757813,9.889035644531251,36.37189422148762
82369,0.14130615234375002,-0.4453239440917969,9.892628173828125,21.072099696478684
82429,0.1335223388671875,-0.46059219360351566,9.888586578369141,13.979400086720377
82496,0.15283218383789063,-0.4638853454589844,9.876461791992188,14.771212547196624
82568,0.12364288330078126,-0.4463717651367188,9.897268524169922,14.913616938342727
82629,0.15238311767578125,-0.45744873046875,9.886790313720704,12.78753600952829
82696,0.14115646362304687,-0.44442581176757817,9.886191558837892,13.010299956639813
82763,0.1407073974609375,-0.4424798583984375,9.87990463256836,11.139433523068368
82829,0.137713623046875,-0.4632865905761719,9.877808990478517,10.0
82896,0.13576766967773438,-0.45460464477539064,9.883646850585938,7.781512503836435
82968,0.137713623046875,-0.45340713500976565,9.886790313720704,16.127838567197355
83029,0.12828323364257813,-0.4531077575683594,9.898466033935547,33.09630167425899
83096,0.15073654174804688,-0.44981460571289067,9.900411987304688,46.96146618411156
83168,0.13427078247070312,-0.4496649169921875,9.895023193359375,55.35811672884065
83229,0.14025833129882814,-0.458646240234375,9.897567901611328,51.79887722414779
83296,0.13202545166015625,-0.4483177185058594,9.893526306152344,46.088254437799556
83368,0.15043716430664064,-0.4493655395507813,9.880054321289062,32.32487866352986
83429,0.1287322998046875,-0.46493316650390626,9.902058563232423,34.70116353151004
83496,0.12828323364257813,-0.44981460571289067,9.89666976928711,35.37819095073274
83568,0.15702346801757813,-0.4483177185058594,9.876012725830078,40.38977622332692
83629,0.1197509765625,-0.4578977966308594,9.895172882080079,44.71819586110372
83696,0.15477813720703126,-0.45116180419921875,9.877659301757813,57.77578327757137
83768,0.14385086059570312,-0.4544549560546875,9.880353698730469,43.07346255369254
83829,0.13651611328125002,-0.4578977966308594,9.885443115234375,50.80373916701309
83897,0.15417938232421877,-0.4477189636230469,9.860145721435547,53.5910472213761
83968,0.12484039306640625,-0.4555027770996094,9.889185333251953,50.80673376651764
84029,0.15477813720703126,-0.44442581176757817,9.887389068603516,51.05901724811146
84096,0.137713623046875,-0.46373565673828127,9.886191558837892,42.48831192807962
84168,0.12484039306640625,-0.4531077575683594,9.889185333251953,39.015128091299395
84229,0.15328125,-0.4640350341796875,9.879605255126954,40.99438915553507
84296,0.1251397705078125,-0.44756927490234377,9.903256072998047,36.07133204391567
84368,0.1471440124511719,-0.46298721313476565,9.886191558837892,33.11329952303793
84429,0.14145584106445314,-0.45535308837890626,9.89996292114258,46.804986831898916
84496,0.12304412841796876,-0.45146118164062504,9.90819580078125,45.5849256929431
84568,0.15163467407226563,-0.4632865905761719,9.885293426513673,40.744141298411364
84629,0.13412109375,-0.4513114929199219,9.902507629394531,37.2582999032058
84696,0.1429527282714844,-0.4626878356933594,9.878707122802735,35.85911710319434
84768,0.15477813720703126,-0.4486170959472656,9.866732025146485,38.40795898847094
84829,0.12139755249023439,-0.45939468383789067,9.88379653930664,39.9638031323341
84895,0.17079483032226564,-0.44876678466796877,9.86074447631836,42.51662549989795
84964,0.11870315551757814,-0.4517605590820313,9.884994049072267,27.067177823367587
85029,0.15133529663085937,-0.45295806884765627,9.887389068603516,34.42322955745575
85096,0.15103591918945314,-0.4517605590820313,9.865235137939454,39.40864975966721
85168,0.11960128784179688,-0.4590953063964844,9.874815216064453,35.559404378185114
85229,0.15627502441406252,-0.45146118164062504,9.873018951416016,34.0226138245468
85296,0.12648696899414064,-0.46478347778320317,9.88514373779297,35.2283531366053
85368,0.13801300048828125,-0.4528083801269531,9.894723815917969,17.92391689498254
85429,0.13786331176757813,-0.45879592895507815,9.888436889648437,48.37903944592942
85496,0.1359173583984375,-0.45415557861328126,9.895172882080079,28.762178405916423
85569,0.14280303955078125,-0.45984375,9.881850585937501,42.890535575926414
85629,0.13486953735351564,-0.4608915710449219,9.888436889648437,39.27780849347374
85696,0.14879058837890627,-0.444276123046875,9.887838134765625,45.048648790077095
85768,0.14220428466796875,-0.4578977966308594,9.880802764892579,40.61414778277073
85829,0.13427078247070312,-0.4577481079101563,9.898915100097657,41.143774297861555
85896,0.14744338989257813,-0.4596940612792969,9.904603271484376,29.712758487381056
85963,0.14879058837890627,-0.4571493530273438,9.900561676025392,32.87577809078706
86029,0.14055770874023438,-0.43888732910156253,9.9010107421875,22.50420002308894
86096,0.1431024169921875,-0.4592449951171875,9.891580352783203,23.180633349627616
86165,0.14340179443359377,-0.4555027770996094,9.898765411376953,32.0112389720738
86229,0.1381626892089844,-0.45580215454101564,9.889784088134766,29.656719712201067
86296,0.1429527282714844,-0.45610153198242187,9.898765411376953,45.55783450085776
86365,0.14280303955078125,-0.4559518432617188,9.90145980834961,37.37351695803714
86429,0.13965957641601562,-0.4596940612792969,9.909842376708985,33.7383114507383
86496,0.13965957641601562,-0.4572990417480469,9.940977630615235,21.702617153949575
86568,0.1335223388671875,-0.4662803649902344,9.909093933105469,33.346547668832415
86629,0.14385086059570312,-0.4507127380371094,9.931846618652344,31.821292140529984
86695,0.1359173583984375,-0.4453239440917969,9.90145980834961,18.512583487190753
86768,0.15118560791015626,-0.4537065124511719,9.89427474975586,13.617278360175929
86829,0.12409194946289064,-0.45026367187500005,9.910291442871094,13.80211241711606
86896,0.1579216003417969,-0.45265869140625004,9.891580352783203,13.424226808222063
86965,0.1323248291015625,-0.4631369018554688,9.896071014404297,13.010299956639813
87029,0.140108642578125,-0.44786865234375,9.88559280395508,10.413926851582252
87096,0.14938934326171877,-0.45610153198242187,9.882898406982422,12.552725051033061
87165,0.11660751342773439,-0.4547543334960938,9.91822494506836,49.454981279692795
87229,0.15762222290039063,-0.45385620117187503,9.884095916748047,49.87563487610744
87296,0.12543914794921876,-0.4547543334960938,9.914931793212892,47.614767795447015
87365,0.14160552978515625,-0.4544549560546875,9.90624984741211,39.62227231350085
87429,0.13606704711914064,-0.4602928161621094,9.895621948242187,34.43262987458695
87496,0.12903167724609377,-0.44622207641601563,9.903256072998047,21.2057393120585
87565,0.15208374023437501,-0.45535308837890626,9.89277786254883,45.26688123884313
87629,0.1215472412109375,-0.44846740722656253,9.91777587890625,36.871721045948
87696,0.15148498535156252,-0.45684997558593754,9.87511459350586,27.323937598229687
87765,0.13995895385742188,-0.4602928161621094,9.90535171508789,13.979400086720377
87830,0.13936019897460938,-0.4540058898925782,9.893975372314454,15.314789170422552
87896,0.13202545166015625,-0.45146118164062504,9.893975372314454,16.020599913279625
87965,0.14145584106445314,-0.4550537109375,9.896071014404297,11.46128035678238
88029,0.14100677490234376,-0.4577481079101563,9.888287200927735,31.058506743851435
88096,0.14340179443359377,-0.44697052001953125,9.896370391845704,38.666417205660395
88165,0.14085708618164064,-0.4489164733886719,9.888586578369141,55.14949985990786
88229,0.12828323364257813,-0.4507127380371094,9.882149963378907,49.6652186743984
88295,0.14415023803710938,-0.4447251892089844,9.925110626220704,51.227923696599696
88365,0.13666580200195313,-0.45460464477539064,9.904154205322266,39.07518846106629
88429,0.13921051025390627,-0.4448748779296875,9.915380859375,34.321672694425885
88496,0.1431024169921875,-0.44876678466796877,9.902058563232423,17.075701760979364
88565,0.1381626892089844,-0.44203079223632813,9.898765411376953,42.12799980625567
88629,0.13741424560546875,-0.4589456176757813,9.883946228027344,26.37489729512511
88696,0.14459930419921876,-0.44786865234375,9.89427474975586,22.7415784926368
88765,0.149688720703125,-0.446671142578125,9.886940002441406,40.41590046889367
88829,0.13501922607421876,-0.45699966430664063,9.878856811523438,27.323937598229687
88896,0.1502874755859375,-0.4650828552246094,9.87556365966797,17.558748556724915
88965,0.12918136596679688,-0.4549040222167969,9.907147979736328,26.473829701146197
89029,0.16031661987304688,-0.4436773681640625,9.883347473144532,13.424226808222063
89096,0.137713623046875,-0.4495152282714844,9.898915100097657,11.760912590556813
89166,0.12963043212890626,-0.4543052673339844,9.893376617431642,9.542425094393248
89229,0.15552658081054688,-0.4493655395507813,9.896220703125001,11.139433523068368
89296,0.12648696899414064,-0.45640090942382816,9.892179107666015,11.760912590556813
89366,0.1490899658203125,-0.45295806884765627,9.907147979736328,16.901960800285135
89429,0.12244537353515626,-0.4616400146484375,9.920470275878907,15.185139398778876
89496,0.14280303955078125,-0.4631369018554688,9.913285217285157,13.617278360175929
89565,0.14055770874023438,-0.4614903259277344,9.901609497070313,12.30448921378274
89629,0.1347198486328125,-0.43963577270507814,9.90669891357422,14.471580313422193
89696,0.16375946044921877,-0.47870452880859377,9.873318328857422,10.0
89765,0.1279838562011719,-0.4486170959472656,9.912686462402345,12.78753600952829
89829,0.15223342895507813,-0.45041336059570314,9.871522064208985,12.30448921378274
89896,0.1359173583984375,-0.4662803649902344,9.89861572265625,11.760912590556813
89964,0.116158447265625,-0.4424798583984375,9.88379653930664,24.24881636631067
90029,0.17678237915039063,-0.4435276794433594,9.839788055419922,27.05007959333336
90096,0.09849517822265626,-0.45834686279296877,9.878108367919923,52.1913637977568
90165,0.17797988891601563,-0.4441264343261719,9.840835876464844,44.56912353745796
90229,0.104183349609375,-0.4441264343261719,9.884395294189453,45.558438366988554
90296,0.14699432373046875,-0.46613067626953125,9.853110351562501,33.43408593803857
90366,0.1722917175292969,-0.449066162109375,9.874366149902345,42.0289680852953
90429,0.10732681274414063,-0.42586441040039064,9.857750701904298,44.02622427748527
90495,0.18486557006835938,-0.4662803649902344,9.826016693115236,46.367185227070706
90565,0.10493179321289063,-0.45684997558593754,9.86553451538086,42.18561761646626
90629,0.16570541381835938,-0.44577301025390625,9.857750701904298,37.75246259740236
90696,0.13965957641601562,-0.4620890808105469,9.871971130371094,39.54965731058421
90765,0.10103988647460938,-0.4543052673339844,9.887838134765625,38.00510876894368
90829,0.17932708740234377,-0.45999343872070314,9.855804748535157,27.916906490201182
90895,0.11316467285156251,-0.4405339050292969,9.90624984741211,23.201462861110542
90965,0.14130615234375002,-0.4650828552246094,9.878108367919923,16.020599913279625
91029,0.14639556884765625,-0.4596940612792969,9.888436889648437,13.979400086720377
91096,0.12888198852539062,-0.44262954711914065,9.884694671630859,12.30448921378274
91168,0.1550775146484375,-0.4577481079101563,9.87556365966797,12.30448921378274
91229,0.12828323364257813,-0.46119094848632813,9.902807006835937,10.0
91295,0.1484912109375,-0.4435276794433594,9.88424560546875,13.424226808222063
91365,0.142503662109375,-0.4686753845214844,9.896220703125001,13.222192947339193
91429,0.1389111328125,-0.46193939208984375,9.897268524169922,13.424226808222063
91496,0.14519805908203126,-0.4343966674804688,9.897867279052734,16.232492903979004
91565,0.12963043212890626,-0.4590953063964844,9.897268524169922,16.232492903979004
91629,0.1502874755859375,-0.4626878356933594,9.892927551269532,18.920946026904804
91696,0.14804214477539063,-0.44786865234375,9.883946228027344,23.443922736851107
91765,0.130528564453125,-0.46178970336914066,9.910141754150391,21.522883443830562
91829,0.13936019897460938,-0.4685256958007813,9.900861053466798,20.492180226701816
91896,0.1387614440917969,-0.43499542236328126,9.905501403808595,32.57918450314059
91965,0.14130615234375002,-0.46373565673828127,9.911189575195314,24.62397997898956
92029,0.132923583984375,-0.469423828125,9.90385482788086,31.613680022349747
92096,0.14879058837890627,-0.4432283020019531,9.89382568359375,23.46352974450639
92165,0.1407073974609375,-0.4650828552246094,9.908794555664063,21.78976947293169
92229,0.15148498535156252,-0.44307861328125003,9.893077239990236,30.519239160461066
92296,0.13412109375,-0.45235931396484375,9.895322570800781,26.655809910179535
92364,0.14205459594726563,-0.4656816101074219,9.89382568359375,31.50449409460881
92429,0.13786331176757813,-0.4656816101074219,9.908944244384767,21.931245983544617
92495,0.13636642456054687,-0.4550537109375,9.891580352783203,13.010299956639813
92566,0.14444961547851562,-0.44682083129882816,9.88948471069336,32.51151343175354
92629,0.14400054931640627,-0.4578977966308594,9.881251831054689,27.24275869600789
92696,0.1389111328125,-0.444276123046875,9.87990463256836,26.93726948923647
92765,0.14265335083007813,-0.4578977966308594,9.895023193359375,22.944662261615928
92829,0.13187576293945313,-0.4614903259277344,9.90624984741211,28.615344108590378
92896,0.14923965454101562,-0.45655059814453125,9.888736267089845,27.888751157754168
92965,0.13696517944335937,-0.4608915710449219,9.89816665649414,24.345689040341988
93029,0.140108642578125,-0.45041336059570314,9.890083465576172,28.615344108590378
93096,0.13621673583984376,-0.45954437255859376,9.880503387451173,29.717395908877783
93165,0.1429527282714844,-0.45026367187500005,9.89427474975586,16.989700043360187
93229,0.13427078247070312,-0.45565246582031255,9.87750961303711,15.797835966168101
93296,0.14325210571289063,-0.4528083801269531,9.886041870117188,13.424226808222063
93365,0.14220428466796875,-0.46418472290039064,9.897268524169922,10.79181246047625
93429,0.13397140502929689,-0.4535568237304688,9.897418212890626,12.552725051033061
93496,0.1285826110839844,-0.4447251892089844,9.895921325683593,12.041199826559248
93565,0.14325210571289063,-0.4559518432617188,9.905651092529297,11.139433523068368
93629,0.12963043212890626,-0.4623884582519531,9.885443115234375,13.010299956639813
93696,0.1429527282714844,-0.44921585083007814,9.892628173828125,7.781512503836435
93765,0.13546829223632814,-0.4596940612792969,9.89906478881836,10.79181246047625
93829,0.1383123779296875,-0.4555027770996094,9.878856811523438,13.424226808222063
93896,0.14579681396484376,-0.4643344116210938,9.894873504638673,11.139433523068368
93965,0.13980926513671876,-0.45116180419921875,9.891879730224609,13.424226808222063
94029,0.14624588012695314,-0.46253814697265627,9.888736267089845,12.041199826559248
94096,0.13322296142578124,-0.4540058898925782,9.898016967773438,6.989700043360188
94165,0.14684463500976563,-0.45101211547851566,9.895921325683593,12.041199826559248
94229,0.14025833129882814,-0.4572990417480469,9.890831909179688,10.413926851582252
94296,0.1431024169921875,-0.45804748535156253,9.893077239990236,13.80211241711606
94365,0.14534774780273438,-0.45535308837890626,9.889035644531251,12.78753600952829
94429,0.12648696899414064,-0.45804748535156253,9.905651092529297,12.78753600952829
94496,0.14340179443359377,-0.44697052001953125,9.907147979736328,15.314789170422552
94565,0.14265335083007813,-0.45879592895507815,9.902507629394531,14.14973347970818
94629,0.14385086059570312,-0.4626878356933594,9.882898406982422,12.78753600952829
94696,0.14115646362304687,-0.4590953063964844,9.881551208496095,48.80167384435361
94765,0.13936019897460938,-0.45146118164062504,9.90145980834961,47.281913985899465
94829,0.1423539733886719,-0.4632865905761719,9.890682220458984,46.093702682472674
94896,0.14459930419921876,-0.4635859680175782,9.893975372314454,47.694216395787436
94964,0.13367202758789062,-0.4589456176757813,9.900112609863282,43.61841115455327
95029,0.13980926513671876,-0.45220962524414066,9.879006500244142,37.298125071609356
95096,0.14699432373046875,-0.44726989746093754,9.902807006835937,37.084209001347126
95165,0.1407073974609375,-0.4584965515136719,9.896220703125001,37.08505880955237
95229,0.13486953735351564,-0.4604425048828125,9.893077239990236,17.323937598229687
95296,0.14325210571289063,-0.4519102478027344,9.890831909179688,8.45098040014257
95365,0.13157638549804687,-0.45220962524414066,9.890532531738282,12.78753600952829
95429,0.13397140502929689,-0.46298721313476565,9.896220703125001,10.79181246047625
95496,0.13995895385742188,-0.44682083129882816,9.899813232421875,12.041199826559248
95565,0.13217514038085937,-0.45220962524414066,9.89232879638672,9.542425094393248
95629,0.14205459594726563,-0.4572990417480469,9.894723815917969,12.552725051033061
95696,0.1484912109375,-0.4584965515136719,9.902208251953125,14.62397997898956
95768,0.14459930419921876,-0.4692741394042969,9.89816665649414,13.617278360175929
95829,0.132923583984375,-0.446671142578125,9.891879730224609,14.14973347970818
95896,0.14175521850585937,-0.4537065124511719,9.908046112060548,11.139433523068368
95965,0.1335223388671875,-0.458646240234375,9.893226928710938,36.74769314015426
96029,0.1333726501464844,-0.4481680297851563,9.888287200927735,52.303850498461486
96096,0.13696517944335937,-0.4508624267578125,9.901609497070313,54.69150180378983
96165,0.14504837036132814,-0.45655059814453125,9.886341247558594,53.385242223249094
96229,0.13726455688476563,-0.45535308837890626,9.88948471069336,44.93444108733453
96296,0.137713623046875,-0.4549040222167969,9.880503387451173,47.85835031358666
96365,0.14759307861328125,-0.4496649169921875,9.895621948242187,33.37059726320525
96429,0.13681549072265625,-0.44158172607421875,9.902956695556641,42.47654175819024
96496,0.13980926513671876,-0.4592449951171875,9.885443115234375,32.24791956492681
96565,0.14175521850585937,-0.45999343872070314,9.900411987304688,33.26130956710794
96629,0.140108642578125,-0.4571493530273438,9.908345489501954,33.098430047160704
96696,0.14100677490234376,-0.45220962524414066,9.909842376708985,30.920184707527973
96765,0.1389111328125,-0.45220962524414066,9.908794555664063,38.48927713227078
96829,0.13801300048828125,-0.4577481079101563,9.88948471069336,35.87486465410964
96896,0.135318603515625,-0.45415557861328126,9.890831909179688,23.26335860928751
96965,0.14265335083007813,-0.45385620117187503,9.901160430908204,15.314789170422552
97029,0.14145584106445314,-0.4501139831542969,9.897567901611328,12.78753600952829
97096,0.14444961547851562,-0.4547543334960938,9.905052337646485,12.78753600952829
97165,0.13711486816406251,-0.45580215454101564,9.910441131591798,21.43014800254095
97229,0.13726455688476563,-0.4505630493164063,9.909542999267579,50.103041977761535
97296,0.144898681640625,-0.45385620117187503,9.901310119628906,39.89360813776247
97367,0.14130615234375002,-0.46193939208984375,9.893526306152344,24.265112613645755
97429,0.13651611328125002,-0.46059219360351566,9.89711883544922,46.61310922861615
97496,0.14415023803710938,-0.4513114929199219,9.888736267089845,44.117711776203734
97565,0.1389111328125,-0.4493655395507813,9.901759185791017,29.106244048892012
97629,0.13561798095703126,-0.4507127380371094,9.890831909179688,18.920946026904804
