relative_time,AccX,AccY,AccZ,DecibelSource
0,0.7655081176757813,4.104464721679688,11.927496643066407,36.303261548039465
65,0.6632707214355469,2.0960911560058593,11.643387451171876,36.02494068807281
131,0.08247848510742188,2.0947439575195315,10.319540405273438,35.73335840066068
198,-0.38050872802734376,2.480940856933594,7.534581756591797,23.57934847000454
265,-0.9428892517089844,2.6536816406250003,7.079228668212891,28.756399370041684
334,-1.8419197082519532,2.8984226989746094,8.233179016113281,36.505988981726574
398,-3.0505064392089847,3.5293606567382816,12.688663787841797,38.0291048941904
465,-5.840853881835938,2.749183044433594,11.103011169433595,36.52052848248105
532,-4.626578979492188,1.9751426696777346,9.081315307617189,42.08710019906401
598,-3.8543348693847657,2.8322602844238283,6.304439849853516,42.8436304631311
665,-2.5438101196289065,2.1764739990234374,6.762786712646485,44.459465227568316
732,-0.5004093933105469,3.3796719360351566,6.20070556640625,40.08983203815472
798,1.0373428344726563,4.11703857421875,7.458689575195313,42.09970516709344
865,3.4528697204589847,2.932402038574219,12.288994903564454,38.50462432761517
934,2.386636962890625,3.1808853149414062,15.328125,31.5259407792747
998,0.9494755554199219,2.0472926330566406,15.07230697631836,34.26673888021373
1065,0.5104385375976562,2.877765655517578,9.351503448486328,33.04705898212765
1134,0.6345304870605469,2.835403747558594,6.235283660888673,33.6679638328673
1198,1.0593470764160158,3.350183258056641,5.013674011230469,27.347998295888473
1265,0.2640509033203125,4.112547912597656,6.6401916503906255,35.28145078253107
1334,-0.06691085815429688,4.568799133300781,7.500752105712891,37.28353782021229
1398,-0.3784130859375,5.223088531494141,8.438851318359376,31.7868923977559
1465,-0.5848338317871095,4.533173217773438,9.911189575195314,33.062105081677615
1532,-1.4172528076171875,3.366948394775391,11.928394775390625,28.813846567705728
1599,-2.4568409729003906,3.7365298461914063,8.839568023681641,28.656960599160705
1666,-1.684896240234375,3.244802398681641,5.278623046875,29.790929006383262
1734,-0.10163864135742189,4.232448577880859,4.822521514892578,32.571984261393446
1798,1.487157440185547,6.253545684814453,8.11761932373047,37.48885440009517
1866,3.890559539794922,6.4991848754882815,13.819262695312501,33.75114684692225
1936,3.989503784179688,3.6624339294433597,16.01414840698242,30.572856444182147
1998,1.8342855834960938,0.27677444458007816,13.066478118896486,33.96373727536507
2066,0.02604583740234375,0.9669891357421876,8.202343139648438,32.00576926754848
2134,-1.5278727722167968,1.8312918090820314,6.183641052246094,34.6044678388072
2198,-0.7385641479492188,3.307222595214844,4.07437728881836,36.7641923171836
2266,-1.4778767395019532,3.9414537048339846,6.550977172851563,28.959747323590644
2334,-3.1019993591308594,4.252955932617188,12.47460891723633,32.65996370495079
2399,-2.5999433898925783,5.122497711181641,10.975775756835938,29.49877704036875
2466,-3.097658386230469,3.6712655639648437,12.365186462402344,40.27594211826226
2534,-2.3571482849121095,2.6460475158691406,8.280630340576172,37.40915076481282
2599,-1.504072265625,3.2082783508300783,6.021827545166016,37.49195042219672
2666,-0.4785548400878907,4.3120829772949225,5.980663146972657,35.70893036218392
2734,0.6391708374023438,5.607638854980469,7.471562805175782,40.019499410842684
2798,1.4504837036132814,5.881569213867188,8.630901947021485,40.9826290237993
2866,1.8865269470214845,5.730682983398438,9.973011016845703,34.838724542226736
2931,0.7171586608886719,5.009482727050782,9.27875473022461,35.520595341878845
2998,0.5171745300292969,3.8104760742187502,8.601113891601562,31.215598441875013
3066,-0.00868194580078125,3.710034942626953,7.937843170166016,26.464037262230697
3135,-1.4763798522949219,3.13029052734375,4.512067108154297,43.467440546048486
3198,-2.5704547119140626,1.4220428466796875,3.497626647949219,42.8539976430243
3266,-2.6479934692382816,1.3064831542968751,-1.1789483642578125,43.30535521090559
3332,-3.6610867309570314,-7.088359680175782,9.949210510253907,39.89316304989951
3399,-2.056872711181641,-12.77353729248047,14.85675521850586,44.260718649652105
3466,-2.6566754150390626,-11.952195281982423,15.339351654052734,37.39018245883481
3534,-4.143084411621094,-11.708951110839845,11.636052703857423,45.592241390467564
3599,-5.322481842041016,-7.704179077148438,9.90669891357422,51.116220359328715
3666,-4.143982543945313,-7.275470581054688,10.494975585937501,47.37455049089966
3734,-5.839356994628907,-7.061864776611328,8.615184631347656,51.96877787324533
3799,-7.591912536621094,-5.124293975830079,10.461595001220704,51.82671386675479
3866,-8.974886627197266,-3.9380108642578127,14.224769439697265,57.3657894731859
3933,-7.71001693725586,-5.764063568115235,10.117760009765625,59.08762128288501
3998,-6.741830291748047,-11.093281402587891,8.837921447753907,60.95297702238145
4066,-5.070406036376953,-11.617191925048829,8.59093505859375,53.098600271940995
4134,-3.9374121093750003,-9.41961181640625,5.670059051513672,49.04087717349738
4198,-3.9487884521484378,-7.811954956054688,4.241280212402344,44.02416152906619
4266,-4.418960723876953,-7.506889343261719,4.939428405761719,46.75989024172628
4334,-5.638175354003907,-8.064030761718751,5.1977911376953125,39.22102366807607
4398,-5.022805023193359,-4.297712860107422,5.785019989013672,35.95606434865603
4466,-6.334227905273438,-3.100502471923828,5.354365539550781,28.926510338773003
4534,-6.0555075073242195,-1.4298266601562502,6.5449896240234375,30.051805125037806
4599,-4.697082366943359,-1.8568885803222657,7.964338073730469,31.248301494138595
4666,-3.194656677246094,-3.036585388183594,8.52956268310547,33.27971623623011
4735,-0.19669097900390625,-3.9115159606933596,10.744207305908203,49.43088721057631
4798,-2.122286682128906,-4.361929321289063,13.689632263183594,42.09622234511551
4866,-4.217330017089844,-5.907016296386719,11.186537475585938,50.22337625916401
4958,-5.798491973876954,-6.187383270263672,12.04066131591797,48.81053530833348
4999,-4.672234039306641,-5.697152709960938,9.513915710449218,55.84959591783992
5065,-4.1782612609863286,-5.689817962646485,4.137994995117188,47.25740166418542
5134,-5.4354968261718755,-5.7224501037597655,0.3523672485351563,48.12779707008964
5199,-6.62267807006836,-7.667505340576172,3.376528472900391,45.49040065083469
5266,-8.726253662109375,-8.108937377929688,5.978866882324219,37.91339703965139
5335,-7.716453552246094,-9.481433258056642,3.3748818969726564,41.190908524217214
5398,-7.678881683349609,-3.1039453125,1.5486795043945314,40.57970231710705
5465,-6.776258697509766,-4.812941436767578,1.6857943725585938,40.32135046879902
5534,-5.53010009765625,-4.554728393554687,2.7665469360351564,47.6900047863436
5598,-5.300327911376954,-5.645659790039063,2.6035359191894534,43.670389381558685
5666,-6.261928253173829,-7.133415985107423,3.157234497070313,39.71693238949861
5734,-9.608219604492188,-10.217901763916016,5.868995361328126,42.83753383332527
5798,-12.570110321044922,-5.918692016601563,7.508236541748047,49.28278044144234
5866,-10.820099487304688,-2.7211912536621097,6.153703308105469,39.98346537396365
5935,-7.411088562011719,-5.663173370361329,4.364024963378906,46.69846638391378
5998,-5.099295959472657,-7.294181671142579,4.511318664550782,44.59633695475458
6066,-4.605023803710938,-6.121220855712891,3.569926300048828,55.06985061537585
6131,-5.916446685791016,-7.782316589355469,2.479893035888672,35.35547279176668
6199,-4.395160217285157,-10.312355346679688,4.928052062988281,40.489465037604916
6266,-2.391427001953125,-10.226134643554689,2.065554656982422,52.37314969579583
6331,-1.6793577575683594,-11.705508270263673,2.2808070373535156,46.844773116475395
6399,-5.9673408508300785,-9.077872467041017,2.744243316650391,35.84331224367531
6466,-7.564220123291016,-5.32412841796875,3.3629067993164066,36.898414091375045
6534,-6.067332916259766,-5.446274414062501,2.6878106689453127,45.77330920234755
6598,-4.885540466308594,-7.5453593444824225,3.9713914489746096,35.11080845539119
6666,-5.543871459960938,-9.175020446777344,4.046086120605469,40.51268318870385
6734,-9.527537384033204,-10.035281524658204,5.113666076660157,54.712594312154096
6798,-11.251801757812501,-4.702171783447266,7.79099853515625,42.21648928192229
6865,-8.319998474121094,-6.522536315917969,6.430328063964844,43.61368922743597
6936,-5.961053924560547,-9.14942367553711,5.676944732666016,32.10318519826232
6998,-4.691693572998047,-10.7440576171875,4.753814392089844,44.769475021740746
7066,-4.378095703125,-9.710157623291016,3.655847625732422,38.17763632280368
7134,-4.74258773803711,-9.790390777587891,3.767216033935547,40.96423330595271
7198,-2.719394989013672,-9.971813507080078,0.5565426635742188,33.68472838440362
7266,-2.046693878173828,-11.759396209716797,-0.6132746887207031,45.12284063281854
7334,-5.338797912597657,-8.74616226196289,2.3743624877929688,34.80581786829169
7399,-8.031697998046875,-7.915539550781251,3.069067840576172,39.86592606822211
7465,-7.258855133056641,-5.825435943603516,3.533701629638672,35.59188189004776
7535,-6.110293579101563,-6.694828033447266,4.379143524169922,35.663196215248114
7598,-6.091133422851563,-8.059091033935548,4.691394195556641,33.1722734917642
7666,-6.060596923828125,-9.103768615722657,4.3929148864746095,33.400473176613936
7734,-7.592960357666016,-9.477840728759766,7.441175994873047,30.572856444182147
7798,-9.177565155029297,-5.961802368164062,8.64931365966797,41.248627284230565
7866,-8.444090423583985,-5.058880004882813,7.922574920654298,32.64345507050093
7936,-6.311924285888672,-8.878487091064454,6.241570587158203,39.64306782303937
7998,-5.213059387207031,-8.921747131347656,5.2138078308105476,49.27791106535692
8066,-4.3559417724609375,-8.9142626953125,5.943540344238282,39.85695859689842
8134,-5.026846618652344,-9.95220428466797,3.634292449951172,35.523031093383544
8199,-4.115242309570313,-10.07060806274414,3.662882995605469,29.956351945975502
8265,-2.6228457641601564,-11.26856689453125,2.185754699707031,23.856062735983123
8334,-4.412524108886719,-8.528814239501953,3.8552330017089846,38.11709026696191
8399,-6.734944610595703,-7.167095947265626,5.750292205810547,33.613500243522665
8466,-6.288123779296876,-5.011877746582032,5.661676483154297,40.40523226445596
8531,-5.659131774902344,-4.561314697265625,5.061873779296875,33.340514403468916
8598,-4.907395019531251,-7.515870666503907,5.683531036376953,34.37592032253961
8666,-5.012177124023438,-8.659043426513673,7.124734039306641,31.287222843384267
8731,-7.7513310241699225,-6.700665893554688,9.821825408935547,31.513698502474604
8799,-9.263935546875,-3.9615119934082035,12.005334777832031,32.951270852521915
8866,-8.474626922607422,-3.7124299621582035,9.77302688598633,34.70410490975931
8935,-5.986501007080078,-7.122189331054688,7.9046122741699225,41.279466428489016
8998,-4.096680908203125,-8.809630279541016,7.606432342529297,49.61131467859047
9065,-3.84879638671875,-7.694299621582032,6.1505598449707035,39.08645838907113
9134,-6.0414367675781255,-7.40779541015625,6.788233795166016,43.605366145832946
9198,-4.478985900878906,-11.004965057373047,6.255791015625,22.764618041732444
9266,-2.011666717529297,-11.593391418457031,1.4795233154296876,34.39332693830263
9334,-4.196822662353516,-7.5488021850585945,3.5983671569824223,26.434526764861875
9398,-7.539671173095703,-6.80948959350586,4.813390502929688,38.465226684162865
9466,-7.363637237548828,-4.818479919433594,5.6432647705078125,43.39431564673933
9534,-6.468348999023438,-5.267396392822266,6.649172973632813,30.95169351431755
9598,-6.548582153320313,-6.534810791015626,7.325915679931641,35.278875659527046
9666,-7.00064208984375,-6.469845886230469,8.328680419921875,35.24396122103842
9731,-9.482481079101563,-4.628524932861328,10.912906494140625,30.920184707527973
9798,-10.817554779052735,-3.93501708984375,11.525732116699219,38.587176148602914
9866,-8.106542358398437,-3.7761973571777347,6.0730210876464845,42.42640797817615
9958,-6.39994125366211,-8.313412170410157,8.519832916259766,51.00649644726378
9999,-5.744903411865234,-8.645870819091797,8.455616455078125,49.787646632749414
10066,-5.508245544433594,-7.022496643066407,5.927972717285156,42.04364204621005
10134,-5.899831237792969,-7.582482147216798,5.609285430908203,35.18118947143153
10198,-4.614903259277344,-10.15817596435547,4.05476806640625,32.42292904982931
10266,-4.701722717285157,-13.43980178833008,3.307372283935547,32.860071220794744
10334,-4.869374084472656,-5.9761724853515625,3.404220886230469,29.036325160842374
10398,-8.577163696289062,-5.405110015869141,3.4917887878417972,26.875289612146346
10466,-7.473658447265626,-4.014651489257813,5.921536102294922,32.9622628726116
10534,-6.428232421875,-5.685926055908204,6.264622650146484,30.37824750588342
10598,-6.334227905273438,-7.199877777099609,7.023694152832031,30.644579892269185
10666,-6.838828582763672,-6.505022735595704,8.166118469238281,29.041743682841634
10734,-9.74144256591797,-4.047283630371094,11.542796630859376,35.31478917042255
10799,-11.008407897949219,-4.367767181396484,9.912087707519532,36.67639706056411
10866,-8.626261596679688,-5.709277496337891,7.336693267822266,41.32579847659737
10936,-6.6054638671875,-7.720195770263672,8.221503295898438,46.6551532598109
10998,-5.1784812927246096,-7.239096221923829,6.2966560363769535,48.048206787211626
11066,-4.9723599243164065,-6.843169555664063,3.4018258666992187,48.82797664832644
11134,-5.720953216552735,-8.104596405029298,5.006339263916016,42.900123392795415
11198,-5.187761993408204,-8.401878204345703,3.7294944763183597,33.93575203269587
11266,-4.416715393066406,-11.846664733886719,3.6622842407226566,32.50420002308894
11334,-5.747747497558594,-7.439080352783203,3.4961297607421877,27.951845896824242
11398,-9.120084686279297,-5.312752075195313,4.670437774658203,25.440680443502757
11466,-6.980583801269532,-3.986360321044922,3.7380267333984376,30.74816440645175
11534,-5.8369619750976565,-5.984704742431641,5.608836364746094,31.65541076722373
11598,-6.84541488647461,-7.368876342773438,7.181765441894532,26.794278966121187
11666,-8.593479766845704,-6.286477203369141,9.400601348876954,38.691730273216834
11734,-10.877130889892578,-3.274889831542969,14.513968048095704,41.578192844172975
11798,-9.490863647460937,-4.126918029785156,7.231312408447266,49.93101010999091
11866,-8.189170532226562,-4.40728500366211,5.225483551025391,51.61873885191049
11936,-7.421866149902344,-6.804998931884766,8.38586151123047,62.12465676981082
11999,-5.950725402832031,-7.077582092285157,7.045548706054688,39.532763366673045
12066,-5.859714660644531,-7.4095916748046875,5.033582611083984,40.8249813850578
12134,-6.396797790527344,-8.889264678955078,5.388195190429688,30.073209529227448
12198,-3.4019755554199222,-9.904902648925782,1.268162841796875,36.1066016308988
12266,-4.674030303955078,-12.917986907958985,4.159250793457032,32.42044239369551
12334,-7.078180847167969,-7.030130767822266,2.82851806640625,27.730546933642625
12398,-7.180567932128906,-7.303162994384766,3.7904177856445314,28.388490907372553
12466,-8.450227661132812,-6.5732807922363286,5.659580841064454,27.007037171450193
12534,-6.364465026855469,-4.999603271484375,4.502487030029297,31.953460583484198
12598,-5.708379364013672,-8.376281433105468,7.192093963623047,30.499928569201423
12666,-5.751040649414063,-9.154513092041016,8.726702728271485,27.810369386211317
12734,-8.00460433959961,-4.767136688232422,7.241491241455078,40.605845313608654
12799,-9.651779022216797,-3.6458184814453127,11.584110717773438,43.777978331112266
12865,-8.902886352539063,-5.562732238769532,8.537047119140626,48.45879067367753
12936,-6.271059265136719,-8.761131134033203,8.848848724365235,52.747903495643904
12998,-5.3000285339355475,-9.996661834716797,8.751700744628907,47.29683040925992
13066,-3.9381605529785157,-8.98701141357422,5.165308685302735,36.57629431388952
13134,-4.4177632141113286,-8.57222396850586,3.861819305419922,38.182258936139554
13198,-4.123624877929688,-9.51346664428711,3.4382002258300783,37.40125736965731
13266,-3.5055601501464846,-12.076885986328126,2.349214782714844,30.0987563371216
13334,-3.2588731384277345,-8.673263854980469,2.435435485839844,27.226339225338123
13398,-8.491841125488282,-8.640332336425782,4.3541455078125,24.593924877592308
13466,-8.657097473144532,-6.99345703125,6.515201568603516,29.96949248495381
13534,-7.50883529663086,-6.048921203613282,6.383924560546875,33.75297738217339
13599,-7.581733703613281,-7.417375488281251,6.392007751464844,31.306553490220303
13665,-7.914641418457031,-7.004384307861328,6.017636260986328,28.597385661971472
13734,-10.77519287109375,-3.3588652038574223,13.871953125000001,45.28453891597644
13798,-9.143436126708984,-4.720733184814454,10.197394409179688,50.23840725599504
13865,-9.108858032226562,-5.641019439697266,7.58068588256836,57.093115223261755
13935,-6.420598297119141,-9.646839294433594,7.4059991455078125,54.33964942676429
13998,-4.010609893798828,-9.695039062500001,7.884254608154297,53.19520368109429
14066,-4.05042709350586,-7.953261108398438,5.853427734375,38.32381160247041
14135,-5.917494506835938,-8.008795623779298,6.179300079345704,34.03120521175818
14198,-5.203479309082032,-10.667416992187501,4.152365112304688,38.73320601815399
14266,-5.451663208007813,-12.225676574707032,0.43768981933593754,43.51235689874295
14334,-4.5779301452636725,-7.773335266113282,0.6915618896484376,33.08777773664721
14398,-8.280181274414064,-7.709418182373048,3.3196467590332035,30.74816440645175
14466,-9.293723602294923,-5.947581939697266,5.7243960571289065,29.180303367848804
14534,-8.021070098876953,-5.60479476928711,7.635471954345704,26.693168805661124
14598,-7.665559387207032,-6.4182032775878906,8.746311950683594,29.334872878487054
14666,-6.057603149414063,-5.867199096679688,8.280929718017578,44.43982303007413
14734,-7.401658172607422,-2.261796569824219,13.26885726928711,45.43496881899322
14798,-6.931186523437501,-1.126707000732422,12.997022552490234,34.83301952358167
14866,-8.798703002929688,-1.638043670654297,10.328970794677735,51.00108510681575
14958,-8.625064086914064,-6.188880157470703,9.575437774658203,49.408749287455805
14999,-9.46796127319336,-7.83455795288086,10.532697143554689,57.13309059129291
15066,-8.843759307861328,-8.095615081787109,8.243956604003907,45.86733545028122
15134,-7.744744720458985,-8.149503021240236,6.82820068359375,45.25239223729745
15198,-6.628815307617188,-9.412277069091797,5.1290840148925785,38.027737252919756
15266,-5.547463989257813,-9.771529998779297,0.4436773681640625,29.858753573083938
15334,-4.417314147949219,-9.092991027832031,1.9535874938964846,31.05510184769974
15398,-7.103627929687501,-6.977440338134766,4.683909759521485,27.151673578484576
15466,-10.19170623779297,-6.559359741210938,6.9871701049804695,29.740509027928773
15534,-9.280401306152344,-5.5359379577636725,7.539671173095703,31.04487111312395
15598,-8.572523345947266,-6.380930786132812,8.266260223388672,32.81941933440825
15666,-7.196135559082031,-6.810238037109375,9.328002319335939,40.723969665217616
15734,-8.26611053466797,-3.425925750732422,10.5524560546875,52.81308409101311
15798,-10.377020874023438,-2.355352020263672,13.874048767089844,49.47570949024913
15866,-10.172546081542968,-2.2543121337890626,9.914482727050782,48.86682449241513
15936,-7.704328765869141,-5.616021423339844,7.564070434570313,46.55762524706514
15998,-7.178472290039063,-9.271419982910157,9.958790588378907,44.612133054611355
16066,-6.259533233642578,-9.140741729736328,8.294701080322266,44.22245024841782
16134,-6.870562591552734,-8.414302368164062,6.6241749572753905,36.93199145153717
16198,-7.657925262451172,-8.80603775024414,5.609584808349609,37.522789854601186
16266,-5.438939666748047,-9.568701782226563,0.3799099731445313,38.857568810692676
16334,-5.429359588623047,-11.078162841796875,-0.6563850402832031,33.78216149749878
16398,-8.153694305419922,-7.054380340576172,3.3031809997558597,38.549130223078556
16466,-9.573491821289062,-6.8355354309082035,7.044351196289063,33.70698092575577
16534,-7.422165527343751,-6.388864288330079,6.980583801269532,39.922441440467715
16598,-6.460714874267579,-8.030051422119142,7.751031646728516,36.101276130759956
16666,-6.020480346679688,-9.08954818725586,9.047485656738282,29.903388547876016
16734,-8.655600585937501,-5.756878509521485,11.884386291503906,41.97859231738087
16798,-11.293265533447267,-0.10148895263671875,13.978531494140626,44.972614661068555
16866,-10.273286590576172,-2.2270687866210936,8.66368377685547,50.05999406439051
16935,-8.266260223388672,-4.552782440185547,7.717800750732422,54.66339624320338
16998,-8.030201110839844,-7.574249267578125,8.726702728271485,55.43633532576258
17065,-7.072642364501953,-8.805888061523438,8.90752670288086,46.37019155753759
17134,-6.641538848876953,-8.427774353027344,6.3514421081542976,44.19691458518478
17198,-7.4290512084960945,-9.732012176513672,6.3352757263183594,52.63671568048523
17266,-3.3988320922851565,-11.966266021728517,3.033142547607422,48.383641726513545
17334,0.8155041503906251,-15.225438537597658,-1.3001962280273438,52.33638188176339
17398,-5.388943634033203,-9.878258056640625,5.407804412841797,45.900054196513295
17465,-9.9010107421875,-9.37695053100586,6.905589752197266,31.46128035678238
17531,-9.671687622070314,-7.057823181152344,8.312963104248047,41.75192788386603
17598,-8.601113891601562,-6.50247802734375,8.203540649414062,47.915011739133114
17665,-8.206534423828126,-5.831573181152344,7.695347442626954,48.73640245823066
17734,-8.334817657470703,-5.292095031738281,7.4661740112304695,35.84783378996508
17798,-9.896071014404297,-3.965703277587891,7.421866149902344,46.8476459689669
17866,-10.39004379272461,-2.9226722717285156,8.560697937011719,48.92200379489421
17935,-9.16094970703125,-7.34357894897461,8.412057037353517,60.93683933843444
17998,-7.758665771484376,-10.447224884033204,9.965526580810547,52.12445972717602
18065,-6.276148681640625,-10.4614453125,8.41894271850586,45.478485168740335
18134,-5.762117614746094,-9.064999237060547,6.077811126708984,64.97087708030867
18198,-6.48376693725586,-8.709488525390626,7.086563415527344,55.977434381873145
18266,-3.8743931579589845,-10.714718627929688,1.6001724243164064,58.10502691497378
18334,-2.5417144775390628,-11.479478302001954,-1.2988490295410158,46.18194580987137
18398,-3.822002105712891,-8.898844757080079,4.363276519775391,50.30591626932783
18466,-8.380323028564453,-7.3727682495117195,6.594985656738282,61.50714082573239
18535,-8.944050750732423,-6.5327151489257815,7.636070709228516,58.30609196151886
18598,-7.988737335205078,-6.248456268310547,7.780819702148438,39.11370707116138
18665,-7.485633544921876,-7.923473052978516,7.558232574462891,49.75188167613726
18735,-8.108188934326172,-6.372997283935547,7.697143707275391,62.1155141680216
18798,-10.134225769042969,-4.4477009582519536,8.166567535400391,39.398685444595095
18866,-12.263248443603516,-2.179617462158203,9.823621673583984,48.05079272412695
18935,-10.764864349365235,-2.6102719116210937,6.400390319824219,52.16973018765572
18998,-9.18774398803711,-6.559659118652344,8.99284927368164,52.95151297650235
19066,-7.403604125976563,-9.65282684326172,10.275831298828125,49.31208613815577
19134,-7.510481872558594,-10.197693786621095,8.149053955078125,57.45581433210677
19198,-7.669151916503907,-10.062674560546876,7.677983551025391,45.200903281128426
19266,-5.4073553466796875,-12.77114227294922,3.297642517089844,65.88359789641659
19332,-3.1915132141113283,-10.66068099975586,-4.4477009582519536,62.81395204332998
19399,-6.103856964111328,-10.328521728515625,1.0364447021484375,69.4312035698941
19466,-8.734935607910156,-8.14635955810547,5.927972717285156,68.07994920163704
19534,-8.878636779785158,-5.0728010559082035,5.0744476318359375,62.969057403206826
19598,-7.492070159912109,-7.465575256347656,6.042783966064453,53.93612050935143
19665,-6.577322387695313,-10.587183837890626,7.883057098388672,37.962273140294386
19734,-7.723488922119141,-8.479566650390625,10.418185272216798,44.107603672445876
19799,-12.00997512817383,-4.589007110595704,12.777728576660158,54.009539530282154
19865,-11.992611236572266,0.27138565063476566,13.654305725097657,54.61040580459355
19959,-9.025631103515625,-2.4649241638183597,8.767118682861328,46.77031770481002
19999,-7.87048324584961,-6.654561767578126,10.012379150390625,43.43152471662257
20066,-6.949149169921875,-11.095526733398438,11.273356933593751,33.39451441306441
20134,-7.206314392089844,-10.694959716796875,8.558003540039063,47.76454190482185
20198,-7.229665832519531,-9.566306762695312,6.028563537597656,52.200714592499835
20265,-7.4395294189453125,-9.206305389404298,5.857768707275391,47.386061716780716
20334,-5.049449615478516,-11.884236602783204,-0.6474037170410156,62.55026335142149
20398,-5.311853942871094,-10.976973266601563,-1.4319223022460938,64.02970981404258
20465,-7.4308474731445315,-7.3374417114257815,3.7293447875976566,54.19001896005983
20531,-7.9661343383789065,-6.555018768310547,3.872896270751953,66.94672311985806
20598,-7.7389068603515625,-7.907755737304688,5.519621887207031,67.32769021102197
20666,-6.346352691650391,-8.900042266845704,6.984625396728516,56.67108182390179
20734,-7.18505859375,-11.185938720703126,8.654552764892578,44.57139784659526
20798,-9.591753845214845,-8.266709289550782,11.739487609863282,47.23044991643445
20865,-11.25704086303711,-3.1632220458984377,14.040502624511719,39.86861270290045
20935,-9.95415023803711,-1.1454180908203127,10.119256896972656,48.08319026537245
20998,-8.904832305908204,-1.6997154235839844,8.65604965209961,43.593231299762074
21065,-7.809859313964844,-8.576415252685548,11.728560333251954,38.62906213562998
21134,-7.738757171630859,-12.015663299560547,10.970686340332032,47.25789163577246
21198,-7.918982391357423,-11.71014862060547,7.629185028076172,39.758911364017926
21265,-7.261998596191407,-10.523865509033204,7.5892181396484375,34.86146996806573
21334,-6.669979705810547,-11.993209991455078,6.624025268554687,40.265741181503344
21398,-3.557502136230469,-11.497590637207033,-1.4162049865722657,33.27767489902729
21465,-4.217330017089844,-7.7089691162109375,-0.9380992126464844,44.58365857761262
21534,-6.215973815917969,-8.252039794921876,3.4417927551269534,68.50839633860078
21598,-8.546926574707031,-7.351961517333985,4.892276458740235,59.67509131332995
21665,-8.203690338134766,-7.572752380371094,6.828799438476563,49.710577187473646
21734,-7.5610766601562505,-8.644673309326173,7.452552337646485,54.12079007164766
21799,-7.21185287475586,-10.004146270751953,9.315578155517578,55.10724588693173
21865,-7.313341827392579,-9.83290237426758,10.278525695800782,45.77434349677488
21936,-10.973829803466797,-3.237168273925781,15.393538970947267,43.67914738793752
21998,-8.65649871826172,-1.854792938232422,10.704090728759766,53.66654519205281
22065,-7.846832427978516,-4.104614410400391,6.903494110107422,38.19872821950546
22134,-6.586004333496094,-9.124126281738281,9.18010986328125,45.2003787392087
22198,-6.276597747802735,-10.051148529052735,8.459358673095704,32.59354927308034
22265,-6.7060546875,-10.225835266113283,6.3635668945312505,36.264430253312945
22334,-7.109465789794922,-9.658515014648438,5.6928117370605476,23.873898263387293
22398,-5.325625305175781,-10.057435455322267,1.9043399047851564,33.23045735481701
22465,-4.171974334716797,-11.883188781738282,-0.00868194580078125,43.40444114840118
22534,-5.1326765441894535,-6.455625457763672,2.07648193359375,45.82597375841483
22598,-8.539891204833985,-6.593788146972656,5.1871632385253905,38.57091154673513
22665,-7.711513824462891,-6.3812301635742195,6.410419464111328,36.90196080028514
22734,-6.954987030029297,-6.549330596923828,6.218069458007813,34.13467412985825
22798,-6.75919418334961,-7.759713592529297,6.78030029296875,43.126215825869814
22865,-6.8603837585449226,-7.813601531982422,7.251370697021485,43.4523646004688
22936,-10.24304946899414,-8.665330352783204,9.614207153320313,49.34402491862127
22999,-11.526480560302735,-4.103416900634766,13.828693084716798,41.68350140185944
23065,-5.5218672180175785,-2.2528152465820312,3.956422576904297,54.040824558843894
23135,-7.678881683349609,-6.01913314819336,5.388644256591797,58.83671086034873
23198,-6.884184265136719,-8.24171127319336,7.943681030273438,51.464660333928194
23265,-6.100863189697266,-8.37972427368164,6.743177490234375,44.31685344686012
23334,-6.379284210205078,-8.542286224365235,6.249204711914063,36.79246145413859
23399,-5.26230697631836,-10.704839172363283,3.4337095642089848,47.47489492258673
23465,-3.5182836914062503,-14.474300537109375,2.6288333129882813,57.8109014362629
23534,-2.6158103942871094,-7.888445892333984,1.7754579162597657,63.75773316604984
23598,-9.340127105712892,-6.770720214843751,2.0706440734863283,66.40500418305282
23665,-7.8850030517578125,-5.5359379577636725,4.5514352416992185,62.43318884353528
23734,-7.29762451171875,-5.5498590087890625,5.900579681396485,56.228085681621764
23798,-6.760840759277344,-6.363417205810547,5.916446685791016,58.37155822078917
23865,-6.560257873535156,-6.691534881591798,7.269932098388672,55.634858317562546
23933,-8.716224517822265,-6.400240631103516,8.919501800537109,52.41994489156781
23998,-10.309810638427734,-5.418881378173828,9.661359100341798,45.14135840899413
24065,-9.568252716064453,-3.013832702636719,7.724686431884766,44.247020040239846
24134,-7.540269927978516,-5.8863592529296875,6.442303161621094,38.19214799882384
24198,-6.499484252929688,-8.56982894897461,8.288563842773438,56.5059015976519
24265,-6.116580505371094,-8.589737548828126,6.657106475830078,52.51557923289407
24334,-5.412594451904297,-7.546556854248047,4.758754119873047,52.76096291554452
24398,-5.526058502197266,-8.723409576416016,4.154011688232422,56.47714433298184
24465,-5.459596710205078,-8.713230743408204,-0.041164398193359375,46.40033992555921
24534,-5.26185791015625,-11.510164489746094,2.803220672607422,53.345241172411775
24598,-5.214107208251954,-7.2932835388183594,4.539759521484375,56.425871737992814
24665,-8.526568908691406,-6.8338888549804695,5.396877136230469,52.94031714387575
24734,-8.458460540771485,-6.216273193359375,6.38033203125,49.918195013058984
24798,-8.276289367675782,-5.879772949218751,6.901697845458985,56.99320772586099
24865,-8.837771759033204,-4.985831909179688,7.197632446289063,47.7179318927048
24956,-11.028915252685547,-1.8540444946289063,10.087672576904298,46.52362395290364
24999,-11.839329986572267,-2.0782781982421876,9.370813293457031,40.889861189479134
25065,-12.221634979248048,-3.5320550537109376,8.255782012939454,39.22932956555212
25134,-9.697583770751953,-5.661227416992188,7.825726318359376,44.00848705279212
25198,-8.387657775878907,-9.822124786376953,9.521549835205079,55.441412478216776
25265,-6.690786437988281,-10.225236511230468,8.497828674316407,39.08163200055548
25334,-6.5747776794433594,-9.207802276611329,6.2031005859375,29.258275746247424
25398,-6.885830841064453,-9.093440093994142,6.21507568359375,37.68638101247615
25465,-5.756878509521485,-10.90167984008789,2.6957441711425782,51.63787309962003
25534,-6.5345114135742195,-9.51196975708008,-4.185446319580079,47.86353846576918
25598,-8.161029052734376,-8.133785705566407,0.5761518859863282,56.2354079027174
25665,-9.391769714355469,-7.390431518554688,4.243525543212891,65.31771328686312
25734,-8.40741668701172,-8.192463684082032,6.364165649414063,63.13796589066968
25798,-8.039631500244141,-9.65432373046875,8.052953796386719,49.302917463641336
25865,-7.561675415039063,-10.795550537109376,10.300080871582031,44.5132580848952
25935,-8.685987396240234,-7.69085678100586,11.076665954589844,54.817105757551886
25998,-10.135423278808593,-4.987328796386719,12.83056869506836,50.62672217862791
26065,-9.14029266357422,0.11720626831054688,14.734309844970705,41.93124598354461
26134,-9.016051025390626,-1.673968963623047,8.889114990234376,56.075354406728934
26198,-7.659571838378906,-6.802454223632813,8.768765258789063,57.82368696385856
26265,-8.241112518310548,-10.88102279663086,9.900112609863282,55.579016171847414
26334,-8.69631591796875,-10.160421295166016,7.105723571777344,53.018847141717515
26398,-8.573870544433595,-10.994037780761719,7.330106964111328,51.64772074769127
26465,-8.487051086425781,-12.929512939453126,4.243076477050781,45.242792558479714
26534,-6.207441558837891,-11.370355224609376,-3.882176971435547,38.51135995011574
26598,-5.6592814636230475,-9.599387969970703,-2.9563522338867188,54.62183792975428
26665,-8.002957763671876,-8.34140396118164,3.9002893066406252,63.52954875095182
26734,-8.069120178222656,-7.88245834350586,6.927893371582032,60.40872009411836
26798,-6.694229278564453,-8.726103973388673,7.466024322509766,53.888539892768904
26865,-7.0028874206542975,-9.456285552978516,8.355474700927735,41.80785134973439
26935,-8.169561309814453,-9.24806854248047,11.033405914306641,40.717347638797605
26998,-10.631641387939453,-3.103496246337891,15.453414459228517,60.07607825600455
27065,-9.116492156982423,-2.7723847961425783,10.667267303466797,48.1303360615791
27134,-10.678643646240236,-2.8404931640625,9.756561126708984,57.186851665109614
27198,-7.482639770507813,-7.242239685058594,10.136770477294922,59.965672687962055
27265,-7.6721456909179695,-10.99553466796875,10.346783752441407,58.71103947909596
27331,-6.821015625,-11.068433074951173,8.260871429443359,51.55065658150255
27398,-6.623127136230469,-10.925330657958986,6.370901641845704,37.55722444903458
27465,-6.039191436767578,-11.237581329345703,4.416565704345703,35.05828033854836
27534,-4.188589782714844,-9.364825744628908,-1.7690213012695313,38.209235878813175
27598,-3.5296600341796878,-10.905422058105469,0.1920506286621094,46.61310922861615
27665,-7.789501647949219,-8.995393981933594,4.567002868652344,41.832128832942516
27734,-10.19754409790039,-7.656727752685547,7.135960693359375,44.253711664389414
27798,-8.053103485107423,-6.486311645507813,6.7421296691894534,52.41922341223746
27865,-7.719297637939453,-7.349566497802734,7.802973632812501,33.94101302040045
27935,-6.763684844970704,-7.748786315917969,8.603059844970703,32.57438566859814
27998,-7.87527328491211,-5.579647064208984,12.251722412109375,43.46939462698991
28065,-7.023544464111328,-5.044958953857422,11.198362884521485,35.99446375725276
28134,-8.282725982666015,-4.462819519042969,9.933493194580079,38.62965758977762
28198,-6.550228729248047,-6.60591293334961,7.863148498535157,46.67312835294965
28265,-6.1787013244628906,-9.611812133789064,8.874295806884765,55.90356910229664
28334,-5.7242463684082034,-9.696835327148438,6.925947418212891,54.56549734245044
28398,-6.6611480712890625,-9.708361358642579,2.580483856201172,49.62804832538366
28465,-5.973927154541016,-7.843539276123047,3.1978001403808594,44.38637266168612
28534,-4.489314422607422,-8.293353881835937,0.8261320495605469,31.934029030624174
28598,-5.24269775390625,-10.458002471923828,0.6173162841796875,27.61927838420529
28665,-6.921157379150391,-7.666607208251953,2.359992370605469,24.1161970596323
28735,-8.17030975341797,-7.769742736816407,5.247338104248047,24.653828514484182
28798,-7.081473999023438,-5.814508666992188,4.697232055664062,26.67452952889954
28865,-6.533164215087891,-6.089786224365235,4.6378056335449225,32.739267801005255
28935,-6.453829193115235,-7.615263977050781,6.082601165771485,30.755469613925307
28998,-6.966962127685547,-6.9868707275390625,7.8128530883789065,28.241258339165487
29065,-9.332193603515625,-4.845723266601563,10.931018829345703,44.855084848338215
29134,-9.927954711914063,-6.176306304931641,9.62363754272461,45.43434753738492
29198,-8.566386108398438,-4.500541076660157,7.087012481689453,53.94779029474854
29265,-7.755073242187501,-7.325915679931641,6.146218872070313,47.733987701924534
29334,-6.596482543945313,-9.726922760009765,8.90423355102539,44.945163553737245
29398,-6.199058990478516,-8.728199615478516,5.805227966308594,38.639173769578605
29465,-6.029761047363282,-8.567284240722657,3.2286360168457033,30.102999566398122
29534,-5.297184448242188,-6.910379791259766,3.5850448608398438,33.84174138807033
29598,-4.911137237548829,-10.036628723144531,0.63468017578125,31.17602691690084
29665,-4.2046064758300785,-9.51346664428711,1.6774118041992188,33.59835482339888
29734,-7.976163482666016,-7.078480224609375,2.131417694091797,37.09693869727792
29798,-8.12675033569336,-6.5660957336425785,4.245920562744141,44.709981696608736
29865,-6.474935302734376,-7.129374389648438,4.88344482421875,47.79791230829645
29965,-6.9870204162597656,-9.504635009765625,6.996600494384766,37.48730556098494
29999,-7.141349487304688,-8.789721679687501,7.021748199462891,37.049222912234015
30065,-10.348280639648438,-5.6943086242675784,12.10098587036133,41.93068916005273
30134,-8.489296417236329,-5.085374908447266,10.840157775878907,34.11282913017384
30198,-9.916728057861329,-5.045408020019532,8.087382202148438,48.019796429185305
30265,-7.103777618408204,-6.340963897705079,7.321275329589844,61.407329882810146
30334,-7.155420227050781,-9.334588623046875,8.134234771728517,50.005815650441335
30398,-6.781946868896485,-8.63928451538086,5.426066436767578,43.16033282125662
30465,-7.301516418457032,-9.011260986328125,4.5056304931640625,52.49066213897716
30533,-7.822732543945313,-10.671907653808594,4.086951141357422,36.5628990119136
30598,-5.075196075439453,-12.403057708740235,0.13980926513671876,37.70189022735993
30665,-2.3749612426757816,-9.953252105712892,0.006436614990234376,40.55531225050898
30731,-8.23168212890625,-7.378755798339844,1.5670912170410156,48.83229764737698
30798,-9.090596008300782,-6.597979431152344,4.286785583496094,41.279466428489016
30865,-7.896978149414063,-7.285350036621094,5.755381622314453,39.18711665382321
30936,-8.530760192871094,-8.325686645507814,6.703959045410157,44.35238988596065
30998,-8.07929901123047,-7.701634368896484,8.144263916015625,41.62624140307847
31065,-9.29986083984375,-4.660857696533204,9.743987274169923,50.98124338294235
31134,-8.659193115234375,-4.679119720458985,8.640931091308595,57.789344453025116
31198,-10.50739974975586,-4.286635894775391,7.9625418090820315,58.152907801161
31265,-8.192613372802734,-5.8791741943359375,7.0450996398925785,56.52897777532445
31334,-8.722661132812501,-9.887538757324219,8.335117034912109,63.67780874302006
31398,-7.772137756347656,-9.553134155273439,7.501949615478516,47.63375575548453
31465,-7.744145965576172,-9.608219604492188,5.383554840087891,45.28042091655066
31534,-6.177653503417969,-10.180629272460939,2.742147674560547,42.205787546328295
31598,-5.01277587890625,-11.06259521484375,2.5354275512695312,47.44042506880766
31665,-5.097200317382812,-8.087082824707032,1.9591259765625002,24.800069429571504
31734,-8.77101058959961,-6.452781372070313,3.1998957824707035,47.14346527548247
31798,-12.885953521728517,-3.2383657836914064,4.259841613769532,44.68007443259236
31865,-11.82226547241211,-1.7428257751464844,3.7555403137207035,31.818435879447726
31936,-10.87907684326172,0.48933242797851567,7.4395294189453125,31.789769472931695
31998,-10.406210174560547,2.9136909484863285,8.62641128540039,51.59019468516636
32065,-12.918435974121094,3.6369868469238282,8.103997650146486,56.22779584833218
32134,-9.681417388916016,-1.1464659118652345,-0.076640625,47.86140709854272
32198,-6.737189941406251,-7.632627868652344,1.5711328125000001,51.736203458915924
32265,-7.448361053466797,-4.871619415283203,7.088509368896485,46.98161464424242
32334,-4.624333648681641,-2.7358607482910156,3.1255004882812503,35.24006445557373
32398,-4.569248199462891,-4.432283020019532,3.1298414611816407,39.63693405238019
32465,-7.9028160095214846,-5.8847126770019536,4.913083190917969,41.32483825000562
32534,-6.571783905029297,-4.985682220458985,4.439318389892579,36.222140229662955
32598,-9.193731536865235,-4.7910868835449225,4.819378051757813,37.013952690139206
32665,-9.828711090087891,-9.18100799560547,5.05828125,41.09915863023794
32734,-4.483775939941406,-11.42708724975586,-0.27647506713867187,39.03849338096681
32798,-6.279142456054688,-4.242178344726563,3.729195098876953,33.296012483565185
32865,-7.433392181396485,-4.427193603515625,0.1694476318359375,36.137361412618716
32936,-6.05745346069336,-3.0564939880371096,2.5786875915527343,34.37274797410124
32998,-9.221873016357423,-2.2778132629394534,1.8140776062011719,36.056282220076184
33065,-10.579849090576172,-2.7378067016601566,3.3690440368652346,39.10464315995614
33135,-9.079818420410156,-7.464826812744141,7.554939422607422,40.75400955513898
33198,-9.56855209350586,-8.073461151123047,4.078418884277344,52.88244752897236
33265,-4.015100555419922,-8.030799865722656,-5.061873779296875,48.087644637362445
33333,-3.5128948974609377,-3.5116973876953126,9.87750961303711,48.58254393036713
33398,-9.1825048828125,-5.389692077636719,0.7295828247070313,51.71960354012677
33465,-4.099075927734376,-4.0513252258300785,4.928800506591797,45.95176445752039
33533,-4.838089141845703,-6.707701263427735,3.7857774353027347,46.803264466292745
33598,-9.05122787475586,-5.432203674316407,6.116430816650391,50.815165272423656
33665,-9.203910369873048,-10.719059600830079,4.208797760009766,53.52282876795067
33734,-2.81414794921875,-10.844349060058594,-2.0206480407714844,43.37559087628736
33798,-7.997269592285156,-8.179590454101563,3.932322692871094,46.23342343531543
33865,-12.115056610107423,-5.286107482910157,7.717501373291016,43.81981000043464
33935,-4.787194976806641,-9.234297180175782,0.38769378662109377,48.13520943705746
33998,-1.320853271484375,-5.904920654296875,4.398004302978515,43.66366915612642
34065,-4.53422103881836,-2.0005897521972655,5.004542999267579,48.01396849070872
34135,-5.857169952392578,-3.024310913085938,3.6326458740234377,47.023185015938864
34198,-6.2084893798828125,-8.858877868652344,2.185455322265625,45.76041733441993
34265,-5.521268463134766,-3.697461090087891,3.7805383300781252,53.706407500808275
34334,-6.929539947509766,-6.06179443359375,4.847220153808594,51.84003963692837
34398,-7.193590850830079,-5.232518920898438,8.389004974365236,60.12660941269089
34465,-4.600084075927735,-8.179740142822267,7.176376647949219,46.04150423082331
34533,-3.809877319335938,-9.345665588378907,6.782246246337891,49.027858744027824
34598,-3.406466217041016,-12.392878875732423,7.007527770996094,43.34272757407155
34665,-6.449039154052735,-8.30877182006836,2.402054901123047,32.31214647962601
34734,-7.125931549072266,-5.891298980712891,2.86204833984375,37.35039705033721
34798,-9.282646636962891,-4.014052734375,5.169200592041016,21.367205671564065
34865,-7.654332733154297,-3.1819331359863283,5.318140869140625,24.99687082618404
34964,-4.781656494140625,-2.7008335876464846,5.500910797119141,35.89055531052344
34998,-3.9017861938476566,-1.8613792419433595,4.591701507568359,39.36212044320249
35065,-3.260968780517578,-2.741399230957031,9.765093383789063,48.64641587111769
35132,-4.619842987060547,-2.062860260009766,11.103909301757813,56.72328804222416
35198,-4.7309120178222654,-2.4122337341308593,12.537328491210937,54.78829012899618
35265,-5.045258331298828,-3.993395690917969,14.040802001953125,51.78303412639601
35335,-6.767277374267579,-5.170547790527344,11.488010559082031,53.398328963462674
35398,-5.327720947265625,-6.561754760742188,10.034383392333984,48.02780564521303
35465,-4.169429626464844,-6.541696472167969,6.373745727539063,56.96062681903898
35534,-5.721551971435547,-6.514004058837891,6.312672729492188,57.74684082203754
35598,-5.322332153320313,-5.960155792236328,4.325105895996094,55.04814627825699
35665,-5.37487289428711,-4.631369018554688,2.182162170410156,42.261099199912735
35734,-5.150938568115235,-5.526357879638672,2.854563903808594,41.19519817868195
35798,-7.133565673828126,-7.1226383972167975,7.905510406494141,50.23626902886161
35865,-6.597230987548828,-8.84525619506836,8.684490509033203,42.05934793684682
35935,-5.400619354248047,-10.762319641113281,11.579769744873047,40.92931075673553
35998,-4.819976806640625,-10.68552932739258,11.596983947753907,44.6630400597521
36065,-5.3579580688476565,-8.256680145263672,11.261531524658203,38.788089323592054
36134,-6.743177490234375,-4.305496673583985,18.37399108886719,42.04879333760662
36198,-6.889123992919922,-2.8322602844238283,12.583432617187501,54.59980197031737
36265,-5.699098663330078,-3.9441481018066407,9.059161376953126,55.89029799292937
36334,-5.92767333984375,-7.754773864746094,9.533824310302736,54.80219723880393
36398,-6.066285095214844,-9.70267318725586,8.916208648681641,47.592749137191134
36465,-6.545738067626954,-10.146799621582032,7.177574157714844,42.00275799111851
36534,-8.096662902832032,-9.946067047119142,7.198081512451172,43.09545003295436
36598,-5.0341813659667976,-10.07779312133789,2.006128234863281,36.30427875025024
36665,-2.998115386962891,-11.344309387207032,0.6200106811523438,46.81521628695195
36731,-5.372627563476563,-8.09322006225586,2.515069885253906,56.93146329479991
36798,-9.002728729248048,-6.511159973144531,3.6580929565429687,49.396290603285955
36865,-7.254364471435547,-5.107528839111328,4.547842712402344,40.21189299069938
36933,-6.497238922119141,-7.525600433349609,7.035369873046875,30.008677215312268
36998,-6.325845336914063,-8.695866851806642,7.094197540283203,35.62054829656378
37065,-7.761360168457031,-8.97892822265625,8.85004623413086,44.25240679100199
37131,-10.2650537109375,-3.5777101135253906,14.880406036376954,59.52805031107509
37198,-10.182724914550782,-4.1728724670410156,8.629405059814454,38.567288903828825
37265,-7.914641418457031,-4.1128472900390625,5.540428619384766,53.30328529618271
37334,-6.8003585815429695,-8.182584228515626,8.75514358520508,55.31457201775274
37398,-6.25145004272461,-9.137897644042969,7.811056823730469,51.16026303455129
37465,-6.403982849121094,-8.835376739501953,5.579497375488281,48.428837068456275
37531,-6.221661987304688,-10.454859008789063,5.209466857910156,43.97783634509514
37598,-4.899760894775391,-10.54422317504883,1.0359956359863283,27.084209001347126
37665,-2.980601806640625,-12.121792602539063,2.5126748657226563,35.00922239190301
37734,-4.139940948486329,-8.325836334228516,2.151775360107422,41.03085001841614
37798,-7.151378631591797,-7.3708222961425784,4.185596008300782,37.71807878999106
37865,-7.050638122558594,-7.8147990417480475,7.385192413330079,38.11440943674158
37935,-6.530320129394531,-8.548573150634766,7.727231140136719,33.46352974450639
37998,-7.318281555175782,-8.486152954101563,8.795260162353516,49.351494048731624
38065,-8.561895446777344,-5.2560200500488286,10.194999389648437,44.58456540444431
38134,-10.79480209350586,-4.766687622070313,11.283685455322265,38.09828961067886
38198,-9.805509338378906,-3.8609211730957034,8.41894271850586,52.743518523964184
38265,-7.415579223632813,-7.9046122741699225,6.720724182128906,57.48777027071938
38334,-7.278314666748047,-9.734107818603515,7.924820251464844,49.04282657645628
38398,-6.610403594970704,-8.765771484375,5.673501892089844,42.12906392750302
38465,-6.467151489257813,-8.320597229003907,5.284460906982422,49.927567006737085
38534,-6.084547119140625,-10.13377670288086,5.192252655029297,43.23829400175669
38598,-4.735851745605469,-10.024803314208985,0.5128335571289063,54.61310902257742
38665,-1.5329621887207032,-9.731563110351564,2.7451414489746093,51.09055188605167
38734,-6.3230012512207034,-6.870113525390625,4.027973785400391,50.84368910904925
38798,-8.98701141357422,-7.2036199951171875,6.1399319458007815,31.781132523146315
38865,-6.613397369384766,-7.805967407226563,7.338639221191406,40.7051809701987
38935,-7.405550079345703,-8.652157745361329,8.77774658203125,31.433271299920463
38998,-8.23497528076172,-5.193150787353516,8.210126953125,35.420781463356256
39065,-10.222242736816407,-2.888094177246094,10.666818237304689,51.24073629521985
39134,-9.75775863647461,-3.4655932617187504,8.726553039550781,38.085485512404055
39198,-11.524085540771486,-7.412435760498047,11.35957763671875,45.0320487552065
39265,-6.322103118896485,-7.9415853881835945,8.989556121826173,56.19406410886778
39334,-6.858886871337891,-10.851683807373048,11.365864562988282,51.009423342914396
39398,-6.949298858642578,-11.59758270263672,8.453071746826172,47.415218917737874
39465,-6.501879272460938,-11.338321838378906,5.784570922851563,42.75265273107007
39534,-4.850064239501953,-10.41593994140625,6.171516265869141,44.35350568908045
39598,-2.442919921875,-9.28354476928711,3.6624339294433597,26.560982020128318
39665,-1.9941531372070314,-6.343957672119141,0.06975494384765625,32.911467617318856
39734,-8.356372833251953,-6.379733276367188,1.9417620849609376,47.64631865023408
39798,-9.027427368164062,-6.823111267089844,3.7055442810058596,39.89983458301399
39865,-8.55935073852539,-8.120912475585937,4.6430447387695315,31.344958558346736
39958,-9.682165832519532,-9.32949920654297,7.851023712158203,43.222192947339195
39998,-9.129664764404298,-9.561516723632813,7.661966857910157,45.145743142016485
40065,-10.693911895751954,-7.88245834350586,8.165669403076173,34.840149626675625
40134,-11.397299194335938,-6.014792175292969,7.686964874267579,47.15460135956847
40198,-11.114387512207031,-2.4402255249023437,5.983507232666016,59.45160234938279
40265,-7.902516632080078,-6.353837127685547,4.348756713867187,52.04092838402539
40334,-7.230563964843751,-9.616751861572267,6.221212921142579,66.64651845773099
40398,-5.87019287109375,-9.987530822753907,6.0881396484375,59.348750131577575
40465,-5.476661224365235,-9.172625427246095,4.688101043701172,48.09721282524744
40534,-6.783892822265625,-10.42447219848633,4.616250457763672,51.73352376141804
40598,-4.167184295654297,-11.40358612060547,1.3415103149414063,45.60862694727465
40665,-3.512146453857422,-12.520413665771486,-0.6944059753417969,39.289076902439525
40734,-7.424111480712891,-8.754993896484375,2.186054077148438,48.07054467768978
40798,-8.443641357421875,-7.499853973388673,3.2525862121582034,39.74603792087032
40865,-7.004234619140625,-6.765780487060547,4.4158172607421875,42.08844289340738
40936,-5.469176788330079,-6.898853759765625,5.73173080444336,44.974410950769716
40998,-6.216123504638672,-9.1920849609375,5.581293640136719,41.14944415712585
41065,-7.04854248046875,-9.212442626953125,6.352489929199219,33.39650157613684
41134,-8.377778320312501,-6.282285919189453,10.92847412109375,50.97618203875831
41198,-11.489058380126954,-3.5348991394042972,14.281651153564454,61.89125206925528
41265,-8.679850158691407,-4.770729217529297,5.386099548339844,64.83888132440826
41333,-7.670948181152344,-9.048683166503906,6.883585510253907,65.84399190659272
41398,-6.968459014892579,-10.16251693725586,6.862629089355469,59.75530605010203
41465,-8.161328430175782,-8.957672424316407,6.297105102539063,48.90806514574591
41534,-8.728798370361329,-10.546618194580079,5.942791900634766,36.55618583541222
41598,-6.220614166259766,-12.575499114990235,0.2755769348144531,37.44684063276886
41665,-1.5597564697265627,-13.187725982666016,-0.03592529296875,44.32038808454621
41733,-4.104015655517578,-9.298064575195314,3.031046905517578,48.58446960810254
41798,-11.04148910522461,-7.323969726562501,6.181844787597656,44.20895976574812
41865,-10.443033599853516,-4.109554138183594,7.0997360229492195,31.316186643491257
41935,-9.098379821777344,-4.527335357666016,7.21664291381836,43.09140245453068
41998,-9.304351501464843,-5.032834167480469,7.348518676757813,37.36953953783146
42065,-8.43810287475586,-4.212090911865235,7.209158477783204,41.208699401791876
42135,-10.490484924316407,-3.3425491333007815,10.843750305175782,52.60529303305843
42198,-10.220745849609376,-4.061054992675781,9.529483337402345,54.20746006464838
42265,-7.55149658203125,-6.730753326416016,8.26042236328125,58.00665537113122
42334,-6.447841644287109,-8.9430029296875,8.82849105834961,59.146937308611484
42398,-5.379513244628907,-8.732540588378907,7.33115478515625,44.8017947602513
42465,-5.444927215576172,-8.051307220458984,5.183720397949219,41.55943017971837
42533,-6.316265258789063,-9.834848327636719,4.024530944824219,31.451964061141815
42598,-3.9904019165039064,-8.736582183837891,-1.8257533264160157,33.0941722577814
42665,-5.462291107177735,-13.337115325927735,3.357518005371094,45.967400044722375
42734,-6.8990034484863285,-8.039930877685547,5.3157458496093755,58.47739805672927
42798,-10.234068145751953,-6.422843627929688,10.418933715820312,46.65318271278417
42865,-8.010741577148439,-2.974165191650391,8.498128051757813,33.694014136966246
42935,-7.760911102294922,-3.5569033813476563,7.628735961914063,26.414741105040992
42998,-4.280798034667969,-6.606212310791016,7.091054077148438,36.04657972047871
43065,-1.7574952697753907,-5.5676719665527346,9.263336791992188,32.7207378750001
43134,-2.341880035400391,-4.601580963134766,17.760117645263673,40.92439911331141
43198,-4.5075764465332036,-3.9784268188476566,12.814102935791016,37.28516104759767
43265,-5.757926330566407,-7.085964660644532,11.23788070678711,36.471872978959894
43334,-6.553372192382813,-8.948391723632813,10.094109191894532,48.813618286025786
43398,-6.804549865722657,-8.739575958251953,8.535101165771485,44.25909012675203
43465,-6.662495269775391,-7.6034385681152346,4.673581237792969,42.12959589036736
43533,-5.654341735839844,-7.272776184082032,4.853207702636719,26.94605198933569
43598,-6.003266143798829,-7.5962535095214845,1.2888198852539063,31.781132523146315
43665,-5.832022247314454,-10.599158935546875,3.066822509765625,51.858933012836715
43734,-6.814728698730469,-6.5256797790527346,3.769910430908203,33.447851226326605
43798,-9.348359985351562,-7.135361938476563,6.741081848144532,44.94238104158476
43865,-9.04883285522461,-6.256539459228516,7.387437744140626,33.944516808262165
43935,-6.73284896850586,-7.139104156494141,9.014703826904297,39.16559219301114
43998,-6.089786224365235,-6.7177304077148445,8.77580062866211,41.7117043490162
44065,-5.627098388671875,-4.918921051025391,9.588011627197266,45.90741549978213
44134,-5.3034713745117195,-6.168073425292969,16.2813427734375,43.10225849183502
44198,-5.03957015991211,-5.6398219299316406,13.839919738769533,43.9670485759754
44265,-5.424569549560547,-6.398144989013672,8.953181762695312,35.729877081982046
44334,-5.1889595031738285,-8.391250305175781,8.78343475341797,45.596792488537886
44398,-5.853427734375,-8.87923553466797,7.2917866516113286,43.70402049972496
44465,-5.510041809082032,-7.824678497314453,5.28146713256836,38.57995495560924
44532,-4.4827281188964845,-8.640931091308595,2.321821746826172,35.21530341278711
44598,-4.157903594970703,-9.414372711181642,1.1084449768066407,36.755950563867465
44665,-4.830904083251953,-14.37730224609375,3.7793408203125,32.02215775801132
44733,-7.502248992919922,-8.621920623779298,5.587281188964844,45.269979745935444
44798,-9.181157684326172,-5.655090179443359,6.405330047607422,53.23140675418149
44865,-7.282056884765625,-4.682562561035157,6.738537139892578,43.64569754969616
44950,-4.304748229980469,-7.407196655273438,6.151158599853516,40.409581733842074
44998,-4.105961608886719,-9.184750213623047,7.115303649902344,27.134905430939426
45065,-4.488565979003907,-7.4006103515625,8.46833999633789,44.43403816887126
45133,-9.841284942626954,-1.6371455383300781,17.97551971435547,32.860071220794744
45198,-8.991202697753907,-3.985911254882813,11.293564910888673,39.72526817865856
45265,-9.176966400146485,-5.42471923828125,9.172326049804688,45.05149978319906
45334,-7.884104919433594,-8.942104797363282,8.925938415527344,54.27971092498495
45398,-7.039261779785156,-9.668244781494142,7.3657328796386725,51.22864377306716
45465,-6.439908142089844,-8.433013458251953,5.27143798828125,39.44778681123507
45533,-5.383255462646485,-9.616602172851563,2.9404852294921877,40.600175425316
45598,-5.016667785644532,-10.09351043701172,2.484982452392578,26.989700043360187
45665,-4.328848114013672,-10.805429992675782,1.431024169921875,37.8830981210705
45733,-7.49880615234375,-8.618477783203126,3.0693672180175784,25.276299008713387
45798,-9.813742218017579,-7.553592224121094,5.684878234863281,26.580113966571126
45865,-10.03318588256836,-5.370681610107422,5.523364105224609,29.319661147281728
45935,-8.106093292236329,-5.466033325195313,6.452781372070313,31.433271299920463
45998,-7.9520635986328125,-7.315437469482422,8.583450622558594,27.307822756663892
46065,-6.497687988281251,-6.537355499267578,9.159602508544923,32.21153321954705
46133,-7.428452453613281,-4.832101593017579,12.468022613525392,40.53040008642746
46198,-8.94629608154297,-2.064357147216797,10.809321899414064,42.86636078716418
46265,-7.514074401855469,-5.465733947753907,8.444988555908203,42.32233521114733
46334,-7.108118591308594,-9.30988998413086,8.76053237915039,45.31542779182199
46398,-6.681655426025391,-9.502389678955078,7.469018096923828,52.12182275604617
46465,-6.539002075195313,-9.011111297607423,5.881868591308594,57.34833420128162
46534,-6.625671844482422,-9.877958679199219,6.2316911315917976,44.143381455823686
46598,-5.160518646240234,-11.382929077148438,1.5724800109863282,37.11047603867034
46665,-3.310515747070313,-12.11924789428711,-1.2757969665527344,31.772478362556235
46733,-5.891298980712891,-9.109157409667969,4.740791473388672,25.105450102066122
46798,-8.72071517944336,-7.328161010742188,4.973108367919922,28.337843746564786
46865,-8.382568359375,-7.282356262207031,8.338260498046875,29.21686475483602
46935,-6.68973861694336,-7.430398406982422,7.805518341064453,32.82848602834645
46998,-6.259832611083985,-7.581733703613281,8.768016815185547,38.009918612601716
47065,-6.511758728027344,-6.006559295654297,8.118218078613282,46.632956460494555
47134,-9.524842987060547,-4.027973785400391,11.61150375366211,48.67703133270098
47198,-10.260563049316406,-3.8276902770996095,11.069031829833985,60.35044506280833
47265,-7.541168060302735,-6.619235229492188,8.345295867919923,54.07691661845845
47333,-7.016060028076172,-10.592273254394533,9.494456176757813,52.722988844988514
47398,-6.43826156616211,-10.790012054443359,8.727600860595704,55.56476183825752
47465,-5.273084564208984,-9.626781005859376,5.855523376464844,41.856554589202155
47534,-4.371509399414062,-9.320218505859376,5.306614837646484,46.67882365176246
47598,-3.0758038330078126,-10.625953216552736,3.217708740234375,47.97724452479282
47665,-2.3236180114746094,-10.81680633544922,0.038470001220703126,28.337843746564786
47733,-4.911586303710938,-9.229207763671875,4.143982543945313,31.146109842321728
47798,-7.212002563476563,-10.205477600097657,5.133125610351563,30.534626049254552
47865,-9.198820953369141,-8.830287322998048,7.078330535888672,44.02897308556409
47935,-8.365054779052734,-7.7758799743652345,6.460116119384766,56.78598493064221
47998,-7.648195495605469,-8.087082824707032,7.795638885498048,57.50782153206715
48065,-7.34357894897461,-7.007976837158203,7.887697448730469,45.80571468876728
48133,-8.77340560913086,-5.355563049316406,8.676706695556641,30.670708560453704
48198,-10.471773834228516,-4.078568572998047,9.143136749267578,49.35058632686648
48265,-8.579109649658204,-6.7404830932617195,7.521708526611328,61.21632712884994
48333,-7.002438354492188,-11.913575592041017,9.089398498535157,61.383077517453955
48398,-6.412066040039063,-11.495644683837892,8.255332946777344,67.4835209728268
48465,-7.268135833740235,-8.860374755859375,8.974437561035156,60.49208328488731
48534,-7.516619110107422,-9.655072174072266,10.264155578613282,52.14279428240533
48598,-3.1859747314453126,-8.553512878417969,8.70784194946289,39.99913132416572
48665,-3.2718960571289064,-3.023712158203125,7.142996063232422,33.94101302040045
48734,-3.3459919738769535,1.894310760498047,6.416856079101563,43.93698016665414
48798,-4.3733056640625,2.3929238891601563,6.285579071044922,45.86621056817303
48865,-2.888094177246094,4.850213928222656,5.352718963623047,42.83911526303729
48934,-1.6561560058593752,4.715943145751953,6.988217926025391,31.911714557285585
48998,0.2477348327636719,5.357359313964844,5.852080535888672,40.78166708168154
49065,1.1367361450195312,6.445296936035157,7.994724884033204,50.149277613646426
49133,1.4269825744628908,6.033952331542969,10.350076904296875,48.46578319846032
49198,0.9568103027343751,5.555696868896485,10.176288299560547,45.84308604274195
49265,0.6328839111328125,3.3081207275390625,10.479407958984375,47.0157661905523
49334,0.5266049194335938,3.5798057556152347,6.876999206542969,52.812402331440744
49398,-0.41628433227539063,3.5920802307128907,7.204218750000001,48.000293592441345
49465,-0.7361691284179688,4.709805908203125,8.168812866210938,51.103910340525175
49534,-1.0397378540039064,4.867727508544922,8.875193939208986,42.613104601006235
49598,-1.5209870910644532,6.254743194580079,9.044342193603516,55.24624569718752
49665,-1.2451107788085938,6.410868530273437,8.812624053955078,49.73321856732437
49734,-2.361638946533203,4.222419433593751,10.719059600830079,40.67851660512353
49798,-2.146685943603516,4.125870208740235,7.034771118164063,30.24485667699167
49865,-2.159858551025391,4.548142089843751,6.573879547119141,37.92251571903264
49958,-0.6137237548828125,4.816683654785156,5.9691371154785156,36.95481676490198
49998,-0.08412506103515625,5.069657592773438,6.6894392395019535,40.0108438129222
50065,0.626297607421875,6.027815093994141,8.749754791259766,33.098430047160704
50133,0.7469467163085938,6.532116394042969,11.437565460205079,35.13617073787875
50198,0.6480024719238282,7.130871276855469,9.814939727783203,38.8570038012833
50264,1.141077117919922,4.2890309143066405,11.43906234741211,39.215824403934164
50332,1.7317488098144531,3.6610867309570314,8.618328094482422,34.20450859106068
50399,0.9779164123535157,4.189487915039063,5.6892192077636725,39.398685444595095
50472,-1.0036628723144532,4.361180877685547,7.7671980285644535,29.781805169374138
50531,-0.9868977355957032,2.9395870971679687,9.00811752319336,32.392994791268926
50597,-0.6879693603515625,4.90784408569336,9.019793243408204,26.020599913279625
50664,-1.6521144104003906,4.960684204101563,10.198591918945313,27.715874808812554
50731,-2.4406745910644534,3.2012429809570313,13.514197082519532,31.408221801093106
50797,-2.958747253417969,2.988684997558594,9.974058837890626,29.111576087399765
50864,-2.099384307861328,4.0302191162109375,4.4247985839843755,32.47727832909723
50933,-2.2700294494628905,3.589984588623047,7.0714448547363284,30.519239160461066
50998,-0.44457550048828126,3.7845799255371095,6.265969848632813,35.30071568837378
51064,-0.19249969482421875,5.10902572631836,8.712931365966798,33.392526340326995
51132,1.0391390991210938,5.589077453613282,9.595046997070312,33.18063334962761
51198,0.58198974609375,6.198460235595704,9.904902648925782,30.755469613925307
51265,-2.0582199096679688,3.7486546325683596,14.24407928466797,31.16939646550756
51334,-0.16196319580078125,2.9723689270019533,7.557484130859375,28.273692730538254
51398,-0.5523513793945313,3.1714549255371094,7.644752655029297,31.601682929585124
51465,-0.4640350341796875,3.3844619750976563,6.832242279052735,32.31724383328516
51534,0.42047561645507814,4.115841064453125,7.430997161865235,23.636119798921445
51598,-0.47256729125976565,5.65269515991211,7.995772705078125,37.135745377720696
51665,-2.1209394836425783,5.18566635131836,10.727891235351564,27.109631189952758
51732,-3.3220417785644534,5.4250186157226565,12.577295379638672,29.59518376972998
51798,-5.076543273925782,1.9591259765625002,14.235696716308594,29.242792860618817
51865,-2.41657470703125,2.345472564697266,6.359076232910157,31.679078100014802
51934,-2.1639001464843752,3.2073802185058597,6.7386868286132815,30.429690733931803
51998,-0.619112548828125,3.5916311645507815,5.790558471679688,29.304395947667
52065,-0.3546125793457031,5.224435729980469,7.3322026062011725,31.728946977521765
52131,0.16091537475585938,5.678890686035157,9.762249298095703,32.14578953570499
52198,0.8300239562988282,6.213578796386719,9.910291442871094,41.89546456738927
52265,0.1011895751953125,5.288801879882813,9.95220428466797,33.80934463330702
52332,0.44158172607421875,2.8232789611816407,10.321486358642579,35.02017214827148
52398,-0.2755769348144531,3.380270690917969,8.71592514038086,31.83839037056421
52465,-0.7192543029785157,3.2521371459960937,6.801406402587891,39.17242857907466
52532,-0.4068539428710938,4.237537994384766,6.114784240722656,29.876662649262748
52598,-1.3983920288085938,4.400848388671875,8.341254272460938,37.71807878999106
52665,-2.1438418579101564,5.554199981689454,9.858050079345704,32.26857570288723
52733,-2.537373504638672,6.077511749267578,10.964998168945312,34.48242412634439
52798,-3.230432281494141,3.3254846191406253,12.091106414794922,40.59260404121731
52865,-2.3366409301757813,3.1859747314453126,7.6526861572265625,43.11563153319913
52936,-2.335892486572266,3.7303926086425783,6.837780761718751,41.53174379371534
52998,-1.2193643188476564,4.130959625244141,6.373745727539063,29.003671286564703
53065,-0.1728904724121094,4.748874664306641,7.188202056884766,37.11300959916166
53134,-0.04954696655273438,5.744154968261719,8.550070037841797,39.58468318366944
53198,0.02724334716796875,5.648503875732422,8.865613861083984,28.937617620579434
53265,-0.36060012817382814,5.588179321289063,9.740544433593751,29.242792860618817
53333,-0.30027557373046876,3.331322479248047,11.52767807006836,27.649229846498887
53398,-0.4770579528808594,3.5250196838378907,8.504714355468751,31.62564406523019
53465,-1.0346484375,3.520529022216797,5.195396118164063,31.894903136993676
53534,-1.7872833251953126,3.2302825927734378,1.6678317260742188,44.51187525056707
53598,-2.117197265625,0.8677455139160156,-3.117117919921875,51.393752644399726
53665,-8.06597671508789,-7.801476745605469,4.547543334960937,37.3471984165568
53734,-10.918594665527344,-13.575868835449219,12.696746978759766,40.812392609116976
53798,-10.79046112060547,-15.596217498779298,16.092585296630862,32.15637563435062
53865,-9.732760620117189,-13.842165069580078,10.458152160644532,36.6838591669
53932,-7.031477966308594,-5.420078887939454,7.551047515869141,45.81278194961242
53998,-4.541106719970704,-8.645721130371093,6.852300567626953,34.90379920003179
54065,-4.376898193359375,-9.363328857421875,6.0255697631835945,31.370374547895125
54131,-6.631509704589844,-7.973319396972657,6.5011308288574226,31.532049000842846
54198,-7.874375152587891,-6.741081848144532,10.16057098388672,44.45682026852679
54265,-9.26633056640625,-7.122339019775391,10.17598892211914,49.30653630844769
54334,-7.450456695556641,-9.716743927001954,7.228917388916016,51.59516061371974
54398,-5.676944732666016,-13.124557342529297,7.579937438964844,50.02895754549215
54465,-4.152365112304688,-11.601175231933594,5.894592132568359,52.39552222529592
54533,-3.7787420654296877,-10.27029281616211,3.8803807067871094,50.66426565640322
54598,-4.34935546875,-10.113868103027345,4.05042709350586,40.407605242286984
54665,-0.6180647277832032,-11.460168457031251,-0.8448431396484375,26.483600109809316
54733,-0.1932481384277344,-13.496683502197266,2.8994705200195314,33.13656346618031
54798,-6.4586192321777345,-8.39259750366211,4.086651763916016,48.10937841542092
54865,-9.408235473632812,-7.348518676757813,5.150489501953126,48.03156556367429
54958,-5.433850250244141,-8.573122100830078,7.164551239013672,47.78303226857978
54998,-6.332431640625001,-8.701704711914063,8.338260498046875,43.96966097844767
55065,-6.887327728271485,-7.258106689453125,8.303832092285157,48.89570601631708
55134,-7.340435485839844,-6.168821868896485,7.885452117919923,35.09068045017162
55198,-9.00766845703125,-5.241350555419922,12.135414276123047,51.046338998890086
55265,-8.40981170654297,-6.611601104736328,9.288185119628906,48.9108006481101
55334,-6.376589813232422,-6.915319519042969,6.755451965332032,54.60126247455456
55398,-6.327791290283203,-10.798993377685548,8.95976806640625,41.622058311770104
55465,-5.966143341064454,-9.599387969970703,6.77116928100586,40.13174409878867
55533,-5.127587127685547,-9.55223602294922,5.151088256835938,32.387985627139166
55598,-5.05109619140625,-9.876312103271484,4.788991241455078,37.33116981442065
55665,-4.728666687011719,-13.983770599365235,4.053570556640625,34.53318340047038
55733,-1.174607391357422,-5.057981872558594,0.2989283752441406,37.85899028384384
55798,-10.666967926025391,-5.059179382324219,2.5161177062988282,37.69377326076138
55865,-7.102580108642578,-8.068521423339844,4.090393981933594,48.43064510913432
55935,-6.47179183959961,-5.449118499755859,3.3974848937988282,50.19660376063939
55998,-7.504194946289063,-6.856641540527344,5.908812561035156,41.905277868873526
56065,-6.129902801513672,-7.495213623046875,7.743846588134766,39.674075565974725
56133,-5.951024780273438,-8.15354461669922,8.501421203613281,36.59821158055705
56198,-8.996292114257812,-8.054750061035156,14.440770263671876,37.97198269838959
56265,-6.1293040466308595,-4.445305938720703,11.495345306396485,44.32648660013107
56331,-7.441026306152344,-6.086044006347657,6.899452514648438,47.372005967432884
56398,-5.563330993652344,-7.06336166381836,8.621172180175781,39.275243408750285
56465,-4.968318328857422,-7.688611450195313,5.687572631835938,33.31427296520743
56531,-5.792354736328125,-8.910071411132813,5.5131852722167976,39.60470777534299
56598,-5.952821044921875,-11.842623138427735,3.726051635742188,30.993352776859577
56665,-3.569477233886719,-14.659465484619142,0.9789642333984375,33.991543339582165
56731,-1.8037490844726562,-13.888269195556642,2.5475523376464846,49.32011827530899
56798,-9.280401306152344,-8.898545379638673,0.9979747009277344,44.96071276220637
56865,-8.769813079833984,-5.357209625244141,3.5654356384277346,50.70289130289695
56931,-7.021598510742188,-6.055657196044923,5.659730529785157,39.19078092376074
56998,-6.897805938720704,-7.896678771972657,6.690037994384766,44.87378797717963
57065,-6.997348937988281,-6.397695922851563,7.230264587402344,36.146863422820125
57131,-8.8184619140625,-2.891686706542969,11.321107635498047,38.5582190540603
57198,-9.44490921020508,-7.778274993896485,12.916490020751954,50.20829305910019
57265,-8.182434539794922,-5.809419250488282,7.1471873474121095,52.74014600865688
57331,-7.649692382812501,-10.018666076660157,7.782316589355469,44.42573829884634
57398,-6.23947494506836,-8.377478942871095,6.868616638183594,41.39910555875683
57465,-6.470145263671875,-8.168513488769532,4.8931745910644535,39.326259440217825
57531,-6.532415771484375,-8.478967895507813,4.6922923278808595,38.101652845431495
57598,-5.160219268798828,-12.377011871337892,2.6455984497070313,36.932871570056555
57665,0.051492919921875005,-12.651690673828126,-0.10193801879882813,43.32680789215245
57731,-4.4493475341796875,-13.453124084472657,2.796035614013672,40.07192823557041
57798,-11.123817901611329,-9.068591766357422,4.868026885986328,32.895889525425964
57865,-9.705068206787109,-7.48967514038086,8.371341705322266,36.378898165807904
57931,-6.524931335449219,-6.564598846435548,6.018384704589844,35.462958351214425
57998,-5.655838623046876,-8.651858367919923,5.993536376953125,33.7383114507383
58065,-5.539231109619141,-7.360194396972656,5.583688659667969,40.32054375479669
58131,-7.094796295166016,-6.595734100341797,7.655530242919922,24.199557484897582
58198,-10.525961151123047,-4.413871307373047,16.265176391601564,40.69963937850763
58265,-8.697064361572266,-6.242768096923829,6.3159658813476565,42.43534101832062
58331,-7.497908020019532,-9.897268524169922,7.211703186035157,43.4121682814391
58398,-5.330115966796876,-12.281809844970704,7.654033355712891,42.69232663806831
58465,-4.490212554931641,-9.945767669677736,5.367538146972657,45.97552591097688
58531,-4.565655670166016,-9.336983642578126,4.649481353759766,43.62614401819401
58598,-2.2683828735351566,-9.457632751464844,1.5501763916015625,36.72005445022952
58665,-1.7034576416015625,-12.551997985839844,0.8714877319335937,26.803355134145633
58731,-3.422333221435547,-14.104868774414063,3.2048355102539063,33.23252100171687
58798,-8.707093505859376,-9.053473205566407,4.182901611328125,38.64748335629659
58865,-7.102729797363281,-7.155869293212891,5.737718353271485,38.827521556130804
58931,-5.766308898925781,-8.207881622314453,6.614894256591797,47.79711903026217
58998,-5.291196899414063,-9.770781555175782,6.32569564819336,50.36816463681198
59065,-6.402785339355469,-8.557255096435547,7.948620758056641,42.81237960427838
59131,-8.601712646484376,-3.3952395629882814,12.388088836669922,29.670797341444974
59198,-10.108030242919922,-4.768184509277344,13.575270080566407,48.03033540320621
59265,-9.313632202148439,-7.052584075927735,9.35210220336914,47.92412703238986
59331,-7.345824279785156,-11.517199859619142,7.785759429931641,48.67579435371948
59398,-6.000422058105469,-12.280762023925782,8.263116760253906,47.1905769475761
59465,-5.933211822509766,-10.080786895751954,6.207890625,38.89805751868086
59532,-5.991740112304687,-10.039323120117189,4.738546142578126,37.40520586053665
59598,-5.1184561157226565,-8.591234436035156,2.6182054138183597,34.51939869365103
59665,-2.330204315185547,-10.315349121093751,-0.47675857543945316,41.80842414646683
59732,-4.705315246582032,-11.671678619384766,1.1644285583496095,41.84634656586273
59798,-9.336384887695313,-10.001751251220703,3.3388069152832034,53.7994877616767
59865,-11.658206634521484,-8.29485076904297,5.479804687500001,48.968788008106486
59955,-7.940836944580078,-6.959627380371094,6.202651519775391,37.068883949816176
59998,-7.2795121765136726,-7.838599548339844,7.135062561035157,41.920095926536696
60065,-6.383625183105469,-8.281678161621095,6.966363372802735,41.018501379381256
60132,-8.185128936767578,-4.823868713378906,10.47626449584961,39.87800285751872
60198,-7.7513310241699225,-4.844675445556641,12.365336151123048,46.86117665919896
60265,-8.059390411376954,-5.040168914794922,9.12831756591797,46.0113613360707
60332,-7.529192962646484,-7.85805908203125,7.065906372070313,37.221401254574154
60398,-7.099286956787109,-10.680589599609375,9.516460418701172,48.07142497460554
60464,-6.897805938720704,-10.293344879150391,7.260950775146485,38.82410684373968
60532,-6.7228198242187505,-9.127269744873047,5.366041259765625,35.30711837981657
60598,-5.376369781494141,-9.683363342285157,3.9532791137695313,26.963563887333322
60665,-5.222938842773438,-9.09388916015625,2.0520826721191407,38.82353746388714
60733,-4.347858581542969,-10.518925781250001,2.186054077148438,32.48708735600918
60798,-6.7951194763183596,-6.4499372863769535,3.605701904296875,36.79337030520794
60865,-8.591833190917969,-5.143603820800782,4.88868392944336,43.16662147688631
60933,-7.854017486572266,-4.608915710449219,5.395230560302735,34.04491617758686
60998,-6.890471191406251,-6.027366027832032,7.146289215087891,37.689339421867814
61065,-7.0100724792480476,-7.073091430664062,9.821675720214845,46.072726884950164
61133,-6.37120101928711,-4.708907775878907,11.291169891357422,45.79028639864269
61198,-8.122409362792968,-2.9957203674316406,13.516891479492188,39.806849743633144
61265,-8.25563232421875,-0.9139993286132813,9.890831909179688,41.17105502761251
61333,-7.783963165283203,-3.504811706542969,8.716972961425782,42.05745540942662
61398,-7.684270477294922,-6.1346928405761725,9.427545318603515,49.7016549483847
61465,-7.188800811767578,-7.438481597900391,8.742569732666016,35.666731376061165
61533,-6.669380950927735,-7.328909454345704,6.568191375732423,40.48286393106125
61598,-6.374643859863282,-6.130501556396485,5.341043243408204,33.96199347095737
61665,-5.646408233642578,-8.508755950927736,4.223167877197266,38.86829004676982
61733,-4.980143737792969,-10.297835540771485,0.7191046142578126,35.4740545966749
61798,-6.567442932128906,-7.41542953491211,4.067641296386719,47.76948037103449
61865,-9.616751861572267,-6.0623931884765625,5.316943359375,41.74641192660449
61934,-9.002129974365236,-4.502487030029297,6.879244537353516,56.16230727589736
61998,-7.339537353515626,-5.129682769775391,6.315816192626953,45.23030721754672
62065,-6.346203002929688,-6.935377807617188,7.1648506164550785,45.25342877056865
62134,-6.7406327819824226,-6.165079650878907,8.793912963867188,55.55911459738704
62198,-7.962841186523438,-2.748135223388672,13.169164581298828,34.23409727733093
62265,-8.05729476928711,-3.8877154541015626,10.433303833007812,33.66422957225973
62333,-9.358089752197266,-6.081403656005859,9.158404998779297,35.9073040579269
62398,-6.363417205810547,-7.242838439941407,7.571554870605469,40.99058789068054
62465,-8.068671112060548,-9.795031127929688,8.652157745361329,43.30657234711394
62533,-7.392976226806641,-8.344397735595704,5.333109741210937,37.572441510219704
62598,-5.783523101806641,-8.876690826416016,4.995561676025391,28.709888137605756
62665,-3.9534288024902344,-10.315199432373047,0.45804748535156253,32.89365951520032
62733,-3.9248382568359377,-11.705358581542969,1.287173309326172,42.012878541017585
62798,-3.6097434997558597,-11.671977996826172,3.758833465576172,43.04059466217599
62865,-8.429420928955079,-8.253836059570313,3.9770796203613283,44.4551079656673
62935,-8.342451782226563,-7.4871304321289065,6.247857513427735,51.991652988450596
62998,-6.600524139404297,-6.369704132080078,6.7264123535156255,41.99233930536902
63065,-6.001769256591797,-7.796686706542969,7.062613220214844,45.895139719944396
63134,-6.78314437866211,-6.673422546386719,6.944209442138672,41.552449171761864
63198,-9.236392822265625,-2.766097869873047,11.527827758789064,36.90107439456331
63265,-10.075697479248047,-6.160139923095703,11.72451873779297,42.7214341759105
63333,-9.275311889648439,-4.036805419921875,6.527326354980469,38.43917638006393
63398,-7.246281280517579,-9.102571105957031,8.477021942138672,38.71222556759707
63465,-6.167324981689453,-11.078761596679689,8.911268920898438,40.72323438293041
63533,-5.667214965820313,-9.180259552001953,5.957311706542969,37.709992051639404
63598,-4.971012725830079,-8.199499053955078,4.728816375732422,39.055260484350484
63665,-4.520000610351563,-9.753118286132812,3.5745666503906253,40.468072135537405
63733,-3.1374755859375,-9.65327590942383,1.8350340270996095,44.13048169317875
63798,-3.380420379638672,-10.911559295654298,3.300187225341797,41.85881978409979
63865,-7.390880584716797,-7.774532775878907,4.18844009399414,46.96976366685733
63930,-8.288863220214845,-8.25129135131836,5.678890686035157,49.28851417584268
63998,-6.73763900756836,-6.593638458251953,5.949378204345703,60.3163221975676
64065,-6.65575927734375,-8.002957763671876,7.208709411621094,40.524630774833284
64130,-6.093678131103516,-8.052205352783204,7.7671980285644535,51.66341291983498
64198,-8.439300384521484,-5.834566955566406,10.42596908569336,45.35812937538893
64265,-9.052275695800782,-4.062252502441407,10.466834106445313,44.50618563451726
64334,-9.746531982421876,-5.3914883422851565,7.148833923339844,41.406023080203326
64398,-6.663543090820313,-7.887996826171875,7.339836730957032,43.605744813966325
64465,-6.216871948242188,-10.60230239868164,9.054820404052736,55.61904800716995
64533,-5.807772674560547,-8.843160552978516,7.5839790344238285,41.89069009399324
64598,-5.163063354492188,-9.101972351074219,5.314847717285157,46.36477866341889
64665,-3.886817321777344,-10.35741165161133,3.4215847778320314,48.624593625287176
64733,-3.442990264892578,-10.39154067993164,0.6915618896484376,53.50943495629466
64798,-2.355052642822266,-13.629158020019531,2.4051983642578127,49.72008334614418
64864,-6.2861778259277346,-7.75073226928711,3.339854736328125,64.77182630669306
64958,-6.340514831542969,-8.451425170898437,7.520211639404297,61.34222384083267
64998,-5.5359379577636725,-7.6561289978027345,7.7951898193359375,67.96094193306091
65065,-5.083279266357422,-8.653355255126954,7.771988067626953,54.55036821454264
65130,-5.978866882324219,-8.63209945678711,8.487649841308594,47.556157255315235
65198,-7.532635803222656,-3.626658325195313,13.439053344726563,45.28183691932006
65264,-8.844956817626954,-3.9460940551757813,11.940818939208985,34.62098381135156
65334,-10.716065826416017,-5.136867828369141,9.48757049560547,26.839471307515122
65398,-7.220385131835938,-8.226742401123047,9.063652038574219,31.215598441875013
65465,-6.424340515136719,-10.50410659790039,9.363777923583985,36.652056284346
65533,-5.8070242309570315,-10.353968811035157,7.062613220214844,32.65996370495079
65598,-5.110073547363282,-9.497749328613281,5.631289672851563,39.55302822761692
65665,-5.296136627197266,-7.87048324584961,4.564158782958985,55.077560534191896
65733,-4.640649719238281,-10.522218933105469,3.822002105712891,53.25300104580671
65798,-3.5259178161621096,-9.589508514404297,-0.9331594848632813,59.80793931604647
65865,-6.190077667236328,-8.141270141601563,3.766916656494141,44.465682313762144
65934,-9.481582946777344,-7.950117645263672,4.037404174804688,61.486982630949065
65998,-8.87309829711914,-7.854017486572266,6.216422882080079,56.6578823978973
66065,-8.849297790527345,-9.27785659790039,7.972870330810547,50.86754787811573
66134,-8.73029525756836,-7.536976776123047,10.008636932373047,45.49469203805492
66198,-8.809779968261719,-4.279450836181641,13.289065246582032,52.354299619928824
66265,-8.119714965820313,-4.83554443359375,8.787027282714844,43.16201068666369
66334,-9.103020172119141,-3.6217185974121096,7.346572723388673,38.16373888752362
66398,-8.061186676025391,-6.252946929931641,8.136480102539062,39.91890303936025
66465,-7.263196105957031,-9.871671752929688,9.445058898925781,35.58468562523795
66534,-6.8005082702636726,-10.16880386352539,8.659043426513673,35.9681693591559
66598,-5.799240417480469,-9.75775863647461,6.559659118652344,35.38573733806856
66665,-4.980892181396484,-11.319161682128907,4.873265991210938,39.604232070778295
66733,-0.4646337890625,-13.162278900146484,0.47017227172851567,59.80106134872874
66798,-0.5888754272460938,-14.231206054687501,2.6131159973144533,61.17874247867606
66865,-6.214776306152344,-9.647737426757812,2.1655467224121097,57.97703002233256
66934,-8.504265289306641,-9.425449676513672,7.475903778076172,69.67700794779188
66998,-7.891289978027344,-7.474556579589844,7.382647705078125,69.83779187785
67065,-6.4252386474609375,-8.415350189208985,7.592361602783203,65.77928746755619
67133,-6.400090942382813,-8.01942352294922,8.711584167480469,53.93148595591118
67198,-6.796466674804688,-4.6607080078125005,11.592642974853517,46.69000576707375
67265,-8.62491439819336,-3.6009118652343752,11.28338607788086,46.11967463644433
67333,-10.255623321533204,-3.7211119079589845,10.138417053222657,35.45183368215406
67398,-7.620054016113282,-7.865094451904297,9.844129028320314,24.471580313422194
67465,-6.685397644042969,-12.255314941406251,10.777288513183594,34.63743721247059
67534,-6.5413970947265625,-11.777957611083984,8.006250915527344,41.67435494042036
67598,-6.224955139160157,-10.848839721679688,5.359305267333984,48.32911087497549
67665,-5.510490875244141,-11.17800521850586,3.5519636535644534,50.6619543102185
67733,-3.2479458618164063,-10.979368286132813,-0.9909393310546876,53.34089675897975
67798,-2.6806256103515627,-11.698472900390625,-2.1606069946289064,60.27458065904198
67865,-6.537056121826172,-12.54705825805664,4.133504333496094,55.46571039747336
67934,-8.768465881347657,-11.46780258178711,8.210276641845704,68.54173425072057
67998,-8.546926574707031,-9.223818969726564,9.277706909179688,63.317470786580486
68065,-6.919061737060547,-9.0004833984375,9.293873291015625,61.34204210278021
68133,-6.935078430175782,-8.249495086669922,9.030271453857422,54.97714541140837
68198,-7.988288269042969,-6.011049957275391,11.504775695800781,59.927999751727334
68265,-9.12697036743164,-3.6395315551757816,12.906011810302735,41.3510083376572
68333,-10.025402069091797,-3.304827575683594,8.691376190185547,27.520484478194387
68398,-8.006400604248046,-8.031847686767579,9.112450561523438,44.903237515496734
68465,-8.089178466796875,-13.312566375732423,11.10181365966797,48.682858064167895
68533,-7.189998321533204,-12.994028778076173,8.840316467285156,34.33929765608464
68598,-6.100713500976563,-12.281510467529298,6.9939060974121094,34.039779636693545
68665,-3.327580261230469,-12.24094482421875,1.4123130798339845,29.106244048892012
68730,-1.4566209411621094,-12.850028228759767,-0.21689895629882813,31.35768514567822
68798,-1.3581257629394532,-13.456117858886719,0.3784130859375,50.72595430580517
68865,-7.062164154052735,-11.375594329833985,3.5772610473632813,44.02089350572097
68934,-10.66068099975586,-10.209369506835937,6.408473510742188,54.552591469033096
68997,-9.549841003417969,-8.459508361816408,7.429649963378907,66.75963472915878
69065,-8.574319610595703,-8.11761932373047,8.013885040283203,55.20294838947939
69133,-7.79384262084961,-7.9149407958984375,8.59527603149414,62.437070910895535
69198,-7.68367172241211,-6.4235920715332036,8.980874176025392,57.78013702018066
69265,-9.236093444824219,-3.4371524047851563,14.305751037597657,51.25994958243141
69333,-7.965086517333985,-4.241130523681641,8.432714080810547,47.37820563349091
69398,-7.809559936523438,-6.357878723144531,7.336094512939454,56.45217847372193
69465,-7.421566772460938,-12.048744506835938,10.634186096191407,53.36359654465231
69533,-8.250842285156251,-12.539124755859376,10.246043243408204,42.85219643202061
69598,-6.979236602783203,-11.560459899902344,7.249873809814454,50.800056226532305
69665,-5.546266479492187,-10.298434295654298,4.934788055419922,50.31997896582144
69733,-3.510649566650391,-11.201656036376953,-0.12693603515625002,53.21476222645926
69798,-2.203118591308594,-11.843371582031251,-1.8886225891113282,62.013067051768054
69864,-5.661526794433594,-10.155631256103517,4.344864807128906,70.83364426268093
69954,-10.771300964355468,-9.802964630126954,6.396797790527344,62.919235758838845
69998,-9.878258056640625,-9.114995269775392,8.477770385742188,70.57461305936971
70064,-7.6754388427734375,-7.840096435546875,8.825048217773437,70.33260502464282
70133,-6.597530364990234,-8.061336364746094,8.709638214111328,60.57450804775463
70198,-6.11253890991211,-7.627688140869141,7.514224090576172,64.87697222956604
70265,-6.200855255126953,-7.256011047363281,9.786798248291015,53.39340120445553
70333,-8.224347381591798,-3.9760317993164063,13.691428527832032,42.05988850752452
70398,-7.896080017089844,-4.473297729492188,7.579039306640626,39.166644645413975
70465,-7.407645721435547,-8.549920349121095,8.35472625732422,37.9560197989418
70530,-6.758296051025391,-11.083252258300782,9.706415405273438,36.70245853074124
70598,-6.220913543701172,-10.969488830566407,7.388934631347657,46.667706215180075
70665,-5.005291442871094,-11.689341888427736,5.300327911376954,53.99927994794086
70730,-3.286864929199219,-12.042158203125,-1.0439291381835938,59.08580981994548
70798,-2.292333068847656,-13.983171844482422,2.7394532775878906,61.882322114566975
70865,-2.1808149719238283,-9.562564544677734,4.207151184082031,65.85841388135256
70935,-7.172484741210938,-8.054001617431641,5.019362182617188,61.36397103391049
70998,-6.500382385253906,-7.687563629150391,6.690187683105469,58.61084949405051
71064,-5.464686126708985,-7.903564453125,6.845714263916016,63.450232125143195
71133,-6.164031829833985,-9.220076751708985,8.033943328857422,57.673399382329116
71197,-5.681285705566406,-7.990084533691407,7.590415649414063,63.194360810098935
71264,-7.1298234558105476,-7.375013580322266,8.14591049194336,65.29531857556181
71333,-10.081984405517579,-5.466632080078125,11.873908081054688,47.71910693189461
71398,-7.502398681640625,-4.763244781494141,7.141199798583985,43.605555484026716
71465,-6.669380950927735,-9.730664978027344,7.704628143310547,40.53424204069344
71530,-4.729564819335938,-11.421399078369141,8.061935119628906,58.96462832324384
71597,-4.600982208251954,-10.098899230957032,6.5413970947265625,46.635030455194446
71665,-4.357438659667969,-9.162745971679689,5.462740173339844,33.473300153169504
71730,-4.286186828613282,-10.348580017089844,4.1128472900390625,35.412046906832586
71798,-4.034709777832031,-14.241085510253907,3.2299832153320316,43.46900388113341
71865,-1.8483563232421876,-7.035818939208985,0.9029223632812501,54.222663784840044
71934,-8.24455535888672,-7.1967343139648445,3.5619927978515626,69.82145721895283
71998,-8.222251739501953,-6.229146423339844,6.9871701049804695,62.23812525645435
72065,-6.524931335449219,-6.31372055053711,6.784790954589844,54.414987555867704
72134,-6.4550267028808594,-7.868387603759766,8.05774383544922,59.99647209628412
72198,-5.841153259277344,-7.1349128723144535,8.800798645019531,43.48596891176548
72265,-7.842641143798828,-6.892417144775391,10.285561065673829,34.94988973683168
72333,-8.23841812133789,-5.221292266845704,10.204280090332032,27.596678446896306
72398,-7.579787750244141,-4.458628234863282,7.337292022705078,31.80412632838324
72465,-6.565347290039063,-7.469616851806641,7.819439392089844,40.04020273253242
72533,-5.788163452148438,-10.095606079101563,8.68478988647461,33.76211850282673
72598,-5.1971923828125,-9.176667022705079,6.144422607421875,28.692317197309762
72665,-5.587879943847657,-9.146729278564454,5.3158955383300786,23.856062735983123
72733,-4.078867950439453,-11.250753936767579,2.7297235107421876,30.42181594515766
72798,-1.982776794433594,-12.428355102539063,-0.10193801879882813,44.69306445431168
72865,-3.2358210754394534,-9.557924194335937,3.0061985778808595,46.59526395563377
72934,-9.342671813964845,-7.691754913330079,3.7976028442382814,43.89272429175553
72998,-8.434660034179688,-5.864055633544922,6.277495880126954,50.07560026644835
73065,-6.283633117675781,-6.163582763671875,6.693480834960938,52.27027545537764
73134,-6.185886383056641,-8.103698272705078,7.059469757080079,42.98743943482407
73197,-5.800587615966797,-8.605454864501954,8.379873962402344,34.87562560256378
73265,-8.14201858520508,-5.697302398681641,10.388097839355469,38.42546836495015
73333,-8.563691711425781,-4.36612060546875,8.96500717163086,36.10766594773271
73397,-8.380472717285157,-5.388943634033203,6.773564300537109,40.78275522086601
73465,-6.304589538574219,-8.560548248291017,8.537945251464844,34.20945405921972
73533,-5.9374031066894535,-10.015522613525391,8.451425170898437,36.416723732246865
73598,-5.246889038085937,-9.236991577148437,5.088967437744141,29.894498176666918
73665,-4.522096252441407,-8.840915222167968,3.805386657714844,28.66287339084195
73730,-3.9966888427734375,-11.11528564453125,3.9344183349609376,35.224442335063195
73797,-4.643493804931641,-12.901072082519532,-0.06421646118164062,47.649826773833894
73865,-5.170547790527344,-7.380851440429688,4.438420257568359,47.39232053376588
73934,-8.822204132080078,-5.05828125,1.9986437988281252,48.490814294648004
73998,-6.76114013671875,-6.148164825439453,5.354814605712891,50.409858370892884
74065,-4.954247589111328,-7.012467498779297,5.427713012695313,46.16528025161455
74130,-6.042933654785156,-7.8306660461425786,6.120023345947266,54.75158156484766
74198,-6.7071025085449225,-6.684649200439454,7.556436309814454,57.819577589663936
74265,-9.031918029785157,-6.000721435546875,10.230625305175781,48.94520974741268
74334,-9.778565368652345,-4.136947174072266,11.525133361816406,43.35237186909729
74397,-9.633666687011718,-5.835914154052735,9.42964096069336,38.885725968576004
74465,-6.796316986083985,-7.590864715576172,8.293353881835937,29.395192526186186
74533,-6.281238098144532,-11.15645004272461,9.702523498535157,30.03029470553618
74598,-6.691983947753907,-10.800490264892579,6.460864562988282,39.42008053022313
74665,-5.809419250488282,-10.092013549804689,4.380341033935547,33.51409751925439
74733,-5.267695770263672,-10.959609375000001,1.9905606079101563,41.865325645923974
74798,-5.725294189453125,-8.742869110107423,-3.962559814453125,46.31616234908716
74865,-5.3368519592285155,-13.131742401123047,-0.41433837890625,55.288151817149036
74957,-10.264005889892578,-9.658215637207032,5.553900604248047,59.05504994494279
74998,-9.58621536254883,-8.09471694946289,6.553671569824219,68.1284072316913
75065,-6.555916900634766,-10.018217010498047,8.136031036376954,63.915229486036615
75130,-6.2683648681640625,-11.756252746582032,7.584428100585938,54.10169639567997
75197,-6.875202941894532,-10.285111999511718,8.053103485107423,52.669463062870115
75265,-10.06956024169922,-2.808010711669922,24.02099807739258,46.51878631030323
75334,-7.195836181640625,-8.549171905517579,15.509398040771485,38.03730170974544
75397,-7.742200012207031,-7.419022064208985,8.435558166503906,50.18600649376942
75465,-7.0169581604003906,-13.485606536865236,8.527467041015626,51.89456624391538
75533,-7.952213287353516,-14.985487518310547,9.937684478759767,42.33960138494771
75598,-7.921227722167969,-13.752501525878907,8.019872589111328,37.90777601337694
75665,-6.8374813842773445,-13.179493103027344,5.536836090087891,32.23755453657241
75733,-6.20354965209961,-11.646381225585937,3.5148408508300784,45.93164181568868
75797,-3.7425173950195316,-11.757001190185548,-5.20437744140625,45.690343013957424
75865,-4.753515014648438,-9.656419372558593,-2.7904971313476565,49.27365229504169
75934,-9.381590881347657,-8.880433044433595,3.3931439208984377,45.72813537559455
75997,-8.15070053100586,-9.430090026855469,5.91135726928711,59.796344056552726
76064,-7.525301055908203,-10.796748046875,7.672295379638673,57.61429391174212
76130,-7.807613983154297,-12.451107788085938,8.994944915771486,58.816408206591866
76198,-9.168733520507812,-10.474917297363282,10.71771240234375,54.6877993217257
76265,-9.578581237792969,-5.127437438964844,14.971416778564453,37.50893920382125
76330,-6.673871612548829,-6.547085266113282,16.33014129638672,39.49243590568265
76397,-6.762637023925782,-5.981261901855469,11.313024444580078,52.48270055506508
76465,-5.577850799560547,-10.96769256591797,8.869356079101562,54.72905575351427
76530,-5.74131088256836,-13.460758209228516,9.300010528564453,51.76837603891837
76597,-7.4465647888183595,-13.434712371826173,7.48728012084961,54.63751185852587
76665,-6.273603973388672,-14.653477935791017,0.7074288940429688,50.07312412140989
76733,-3.4908906555175783,-13.11752197265625,-3.646417236328125,40.10554351540322
76797,-4.614903259277344,-13.519286499023439,-5.189109191894532,33.64550995353972
76865,-6.56953857421875,-13.231734466552735,2.5274940490722657,45.23967458665484
76934,-9.789342956542969,-11.169622650146485,5.679788818359375,46.674062520477236
76997,-9.827064514160156,-8.23931625366211,7.760462036132813,48.17677729547203
77065,-6.534212036132812,-7.1491333007812505,6.566844177246094,49.935199949587215
77130,-5.442382507324219,-8.119714965820313,6.366261291503907,41.466860556475254
77197,-5.031187591552735,-8.327183532714844,6.6542623901367195,37.857567999626426
77265,-6.789580993652344,-6.7879344177246095,10.232720947265625,31.10252917353403
77330,-8.309520263671875,-4.98687973022461,13.20179672241211,45.27023785510104
77397,-9.360484771728515,-6.128106536865235,6.589447174072266,50.90303914264958
77465,-7.556585998535157,-11.565249938964845,9.306746520996095,51.569003214487886
77530,-6.766828308105469,-13.143268432617187,8.838220825195313,45.52680381053355
77597,-5.029091949462891,-12.350217590332031,6.444997558593751,42.78524964737017
77665,-4.934788055419922,-10.688672790527344,4.371509399414062,39.63787827345555
77733,-4.358037414550782,-9.967023468017578,1.4277310180664062,31.218879851036814
77797,-2.2399420166015624,-12.294383697509767,-0.3878434753417969,32.922560713564756
77865,-1.1666738891601562,-10.626402282714844,1.6616944885253908,29.29929560084588
77934,-7.846682739257813,-9.246272277832032,3.586541748046875,30.685568950723628
77997,-8.691076812744141,-10.273436279296876,6.382277984619141,29.827233876685455
78065,-7.253466339111329,-9.654623107910156,8.64078140258789,36.90904554054966
78133,-7.5260494995117195,-9.110055541992187,8.281827850341797,40.11739561388318
78197,-6.262826385498047,-7.7109150695800786,8.921597442626954,49.2809870959079
78265,-7.4501573181152345,-7.085515594482422,7.749235382080078,45.153571497383695
78333,-8.760831756591797,-4.519102478027344,12.407997436523438,47.76759279698738
78397,-8.914113006591798,-4.737797698974609,7.796836395263672,45.12497620103123
78465,-8.093369750976564,-8.257727966308595,8.18183578491211,54.20289185039424
78533,-7.727231140136719,-12.798086242675781,10.735076293945314,52.93362554711446
78597,-6.534062347412109,-12.87038589477539,8.571176147460937,60.91927104698349
78665,-5.083728332519532,-11.972403259277344,5.457351379394532,43.342928715484604
78731,-4.402644653320313,-11.495345306396485,4.027524719238281,40.29586671630457
78797,-2.720442810058594,-10.744207305908203,-3.3187486267089845,35.29045170765769
78865,-3.207679595947266,-13.352982330322266,0.0149688720703125,52.74848013613929
78934,-5.316643981933594,-13.508209533691407,4.159550170898438,53.97748877047959
78997,-9.43967010498047,-10.188263397216797,7.449408874511719,46.10990016444272
79065,-8.173153839111329,-8.89794662475586,7.050189056396484,50.11092329723418
79133,-6.356681213378907,-11.363619232177735,9.303303680419923,43.7432667414956
79197,-6.074667663574219,-9.55942108154297,10.722352752685547,53.88060329053638
79265,-5.409900054931641,-5.803731079101563,13.714630279541016,39.91004440330755
79330,-5.746250610351563,-5.148992614746094,8.3969384765625,41.336346980589276
79397,-10.420131225585939,-4.546495513916016,13.560301208496094,41.90835747532066
79465,-6.602021026611329,-7.188950500488281,9.262288970947266,47.71785844219836
79533,-7.801626434326172,-12.816497955322266,10.51458480834961,43.392725188559396
79597,-6.340664520263672,-12.757071533203126,9.047934722900392,46.82830738168684
79665,-6.797065429687501,-12.6840234375,6.936874694824219,43.353375252605446
79730,-5.512287139892578,-14.930851135253906,4.844076690673829,33.92345155361204
79798,-1.996248779296875,-15.335459747314454,-3.4350567626953126,36.41771470653959
79865,-0.8421487426757813,-16.363821258544924,-2.9668304443359377,59.438663264636986
79947,-9.66480194091797,-13.315410461425781,6.6225283813476565,47.61972918552941
79998,-11.715687103271485,-12.643607482910157,10.804980926513672,34.64042205438811
80064,-9.647138671875,-11.300899658203125,12.418026580810547,44.99618359700007
80133,-7.5717045593261725,-8.02615951538086,11.08025848388672,49.71693238949861
80197,-6.244414672851563,-7.951614532470703,8.941955108642578,37.05778212828598
80265,-6.415059814453126,-3.4645454406738283,7.292535095214844,39.54628377507271
80333,-8.809779968261719,-3.6503091430664063,16.983682250976564,54.62688428798376
80397,-9.351204071044922,-8.878636779785158,12.567266235351562,43.99777524488799
80465,-8.39978256225586,-11.635304260253907,9.134005737304689,45.90262091586744
80533,-6.8198181152343755,-14.619199218750001,12.109817504882812,51.01953177477199
80597,-5.833968200683594,-12.050840148925781,8.376281433105468,43.280940578150265
80664,-4.791685638427735,-10.711575164794922,6.544690246582031,39.362623419034776
80730,-4.079616394042969,-11.310779113769533,4.882097625732422,38.206611346435956
80797,-1.8224601745605469,-12.910502471923829,-1.8110838317871094,35.768018958289126
80864,0.26105712890625,-13.17021240234375,0.9964778137207032,43.58677084512975
80930,-10.053842926025391,-11.073223114013672,8.523425445556642,37.55341183811548
80997,-9.243727569580079,-9.316027221679688,7.593708801269532,38.80298991425752
81064,-7.366930389404297,-11.411669311523438,9.776020660400391,50.47847057896036
81133,-8.078400878906251,-12.020902404785156,11.415411529541016,37.031193462360775
81197,-7.870632934570313,-8.781339111328126,11.216924285888673,33.69215857410143
81265,-8.609047393798829,-5.911956024169922,9.438921661376954,28.987251815894936
81333,-10.476863250732423,-2.4203169250488283,11.68574935913086,39.259305978684715
81397,-8.149503021240236,-4.193379821777344,8.201744384765625,43.13698529560312
81465,-6.872358856201172,-9.351503448486328,9.054670715332032,33.6679638328673
81530,-6.597230987548828,-12.799732818603516,10.995834045410156,35.165353738958
81597,-5.76960205078125,-12.9474755859375,9.339378662109375,43.78997140810852
81665,-5.326673126220704,-12.827125854492188,5.797144775390625,45.79017191026647
81733,-3.861669616699219,-11.854897613525392,6.022426300048829,40.8188713942355
81797,1.2698094177246095,-12.759915618896486,0.13936019897460938,32.86456469746983
81865,-0.7201524353027344,-11.98123489379883,2.852019195556641,33.49860082192331
81935,-6.125112762451172,-9.968670043945313,4.81443832397461,35.71009672309305
81997,-8.053103485107423,-9.244775390625,4.612059173583985,38.59798547480566
82065,-8.666378173828125,-8.917256469726563,5.464536437988282,44.48907192598777
82131,-9.241482238769532,-9.665400695800782,7.857460327148438,52.59944899195753
82197,-9.845625915527345,-7.699239349365235,8.49079330444336,34.983105537896
82265,-9.801916809082032,-5.963299255371094,7.176226959228516,45.04049276748714
82333,-10.046807556152345,-5.545068969726563,9.203012237548828,43.71603469729753
82397,-8.738378448486328,-4.438270568847656,8.083340606689454,29.237619608287005
82464,-6.554569702148438,-8.58180404663086,7.402556304931641,29.185545305502735
82533,-5.858367462158204,-11.199111328125001,8.342451782226563,30.2201573981772
82597,-5.7666082763671875,-10.116712188720703,7.6975927734375,29.777236052888476
82664,-7.1191955566406255,-10.417137451171875,7.2811587524414065,30.354297381845484
82733,-2.728825378417969,-11.46929946899414,-1.8259030151367188,36.49724185929522
82797,-3.3916470336914064,-12.377610626220704,1.7797988891601564,48.931012211193085
82865,-4.989424438476563,-11.590547332763672,1.8709593200683594,47.9217448795239
82934,-9.200018463134766,-8.012687530517578,5.482050018310547,51.41471722747408
82997,-9.340127105712892,-6.3352757263183594,6.3812301635742195,49.123814989188006
83065,-7.7356137084960945,-4.7785130310058594,5.8246875000000005,56.34210162427305
83134,-6.179150390625001,-6.557264099121094,6.240672454833985,38.88797067456681
83197,-5.760920104980469,-7.263196105957031,6.789431304931641,58.01303529436279
83265,-5.968688049316406,-6.0466758728027346,9.714049530029298,47.98063364109119
83333,-6.019432525634766,-5.366340637207031,15.611785125732423,50.20112569565467
83397,-7.3920780944824225,-6.2685145568847656,10.055489501953126,40.84147133154448
83465,-6.879394226074219,-6.046077117919922,7.001240844726563,37.204074008031085
83533,-6.706952819824219,-8.506959686279297,9.15990188598633,34.88409688903198
83597,-5.899831237792969,-8.641829223632813,7.078480224609375,37.466341989375785
83665,-5.69820053100586,-8.757987670898437,4.639901275634766,39.04715545278681
83730,-5.726192321777344,-9.347012786865236,-0.46957351684570314,34.553017716570764
83798,-3.9272332763671876,-11.967014465332031,1.2497511291503907,40.95483185829541
83865,-4.096082153320313,-14.611565093994141,1.8832337951660156,55.69260346076457
83933,-6.939718780517579,-7.1419482421875005,4.3066941833496095,58.843653864846544
83997,-6.959477691650391,-7.586074676513673,5.644312591552735,60.21761776692585
84065,-7.373516693115235,-7.026538238525391,6.70844970703125,62.155201849754405
84133,-5.647605743408203,-7.869435424804688,7.268584899902344,53.51018981849567
84197,-6.735693054199219,-6.396797790527344,7.5576338195800785,53.052890157628354
84265,-8.655301208496095,-3.7805383300781252,10.639425201416016,36.607706435276974
84334,-9.276060333251953,-4.304448852539062,11.055110778808594,41.069723998866735
84397,-10.118209075927735,-4.7470783996582036,7.850724334716797,33.44392273685111
84465,-8.826395416259766,-9.417216796875001,9.370214538574219,36.05412798153051
84532,-7.34073486328125,-11.753708038330078,8.615184631347656,36.336704060514435
84597,-5.909561004638672,-10.537337493896485,6.495143280029297,33.864989655506534
84665,-5.461542663574219,-8.866511993408203,4.146527252197266,31.720188094245565
84733,-5.974825286865235,-9.320667572021485,4.58691146850586,45.27539681964797
84797,-3.919000396728516,-11.313024444580078,-1.0590476989746094,40.83502619830267
84865,-2.2275178527832034,-11.800859985351563,0.23007156372070314,56.667930713815984
84956,-8.284073181152344,-8.737330627441407,4.092339935302735,65.56549857528982
84998,-8.465046844482423,-9.29551986694336,6.119574279785157,64.69117298590243
85065,-7.606132965087891,-9.086853790283204,7.01980224609375,52.54908027388396
85132,-7.050488433837891,-11.711495819091798,9.177116088867187,55.339549876866755
85197,-7.240293731689453,-8.095016326904297,10.364447021484375,52.37380344323686
85265,-8.982371063232423,-5.286107482910157,11.866273956298828,52.17454990283304
85333,-10.670261077880859,-2.272723846435547,12.67204833984375,35.789828427027906
85397,-8.580007781982422,-5.7260426330566405,10.116263122558594,29.66610986681934
85464,-7.17832260131836,-11.181448059082031,9.182055816650392,40.04751155591001
85533,-7.47770004272461,-13.731844482421875,9.858199768066406,44.71453074297387
85597,-7.040159912109376,-12.620106353759766,7.761659545898438,58.7115887426131
85665,-6.069877624511719,-10.782228240966797,5.2982322692871096,53.92575615180273
85733,-6.1935205078125,-9.842183074951173,4.174219665527344,41.69351090492418
85797,-4.782255249023438,-8.483907623291016,1.033450927734375,39.66845423654916
85865,-3.945644989013672,-9.189390563964844,-1.569785614013672,36.71450554212495
85934,-6.675518188476563,-5.398224334716797,0.7032376098632813,47.159031102654495
85997,-8.618477783203126,-8.482859802246095,3.1966026306152346,55.604171891124224
86065,-8.243058471679689,-9.975106658935548,7.101831665039063,61.539105509726475
86133,-7.424710235595703,-11.625574493408203,8.739575958251953,58.82873882093303
86197,-7.968529357910157,-9.819280700683594,11.84816162109375,55.043580264227515
86265,-7.107968902587891,-7.187154235839844,11.518397369384767,48.56505343348037
86333,-7.560777282714844,-5.225333862304688,14.511722717285156,45.38561167233788
86397,-6.266119537353516,-4.038751373291015,10.994486846923829,46.33508853187345
86464,-6.35398681640625,-7.245832214355469,8.005502471923828,39.229848157088824
86533,-6.341862030029297,-10.876382446289064,9.19253402709961,43.64382122338207
86597,-7.258406066894532,-11.316167907714844,7.676037597656251,31.983821300082944
86664,-7.113357696533203,-10.154733123779298,4.843477935791016,53.493202747090734
86733,-6.351741485595704,-8.498577117919922,3.9962397766113282,51.31012024778481
86797,-5.688620452880859,-8.747808837890625,1.2484039306640626,50.09705788390519
86865,-5.880521392822266,-8.909772033691407,-1.892963562011719,40.04192356259714
86934,-6.384972381591798,-6.860683135986329,2.9714707946777343,48.50872817755948
86997,-7.697892150878906,-7.449708251953125,4.552333374023438,58.44627506326039
87065,-6.975344696044922,-6.94795166015625,5.6239549255371095,57.34078606146334
87133,-6.196663970947266,-8.078999633789063,6.294261016845703,59.05484479416354
87197,-6.171366577148437,-9.479337615966797,7.908504180908204,57.821292094542486
87264,-6.048023071289063,-8.090525665283204,8.278085632324219,42.73325424275121
87333,-7.39821533203125,-7.0653076171875,11.943663024902344,42.37367773021761
87397,-7.616461486816407,-6.112987976074219,11.153605957031251,46.477251845042886
87465,-7.005282440185547,-4.020189971923829,9.400002593994142,33.76394442037266
87533,-6.147865447998047,-6.828949127197266,7.64729736328125,32.53580289562183
87597,-6.489904174804688,-8.050409088134765,7.332501983642579,34.69674772551798
87664,-6.782395935058594,-8.05445068359375,5.600753173828125,31.652443261253108
87733,-7.884404296875,-8.937913513183593,5.908363494873047,26.30427875025024
87797,-7.343878326416016,-12.603490905761719,2.9716204833984374,33.049211619008915
87864,-4.588558044433594,-15.012730865478517,-2.6493406677246094,33.376588910261425
87930,-3.5494189453125,-8.356971588134765,0.1782792663574219,39.683895418470684
87998,-8.506959686279297,-7.230713653564454,2.951861572265625,57.53051929881137
88064,-7.892936553955079,-6.965016174316407,5.561834106445313,61.12445798068496
88133,-6.388564910888673,-8.543633422851563,5.962850189208985,49.18633105073041
88197,-7.000043334960938,-9.710756378173828,8.189170532226562,53.43115025771722
88264,-6.740183715820313,-5.900579681396485,9.067843322753907,44.23458871819513
88333,-8.320746917724609,-5.261558532714844,12.498708801269531,37.767011839884105
88397,-8.020770721435547,-4.999752960205078,10.862760772705078,30.461047872460387
88465,-7.9396394348144534,-7.057523803710938,10.407707061767578,41.02947968005374
88533,-6.556066589355469,-10.021659851074219,8.563841400146485,49.953982420690366
88597,-7.021448822021485,-11.778406677246094,9.409882049560547,50.57475915826254
88664,-6.379733276367188,-10.576555938720704,6.744524688720704,49.7483395504854
88733,-6.04742431640625,-8.80498992919922,4.1270677185058595,37.60422483423212
88797,-4.815037078857422,-10.798993377685548,1.8182688903808595,36.46893624167745
88864,-3.596421203613281,-10.804681549072265,-1.8468594360351565,30.261245167454504
88934,-5.817053375244141,-8.003257141113282,3.979324951171875,36.487502126980196
88997,-8.693771209716797,-6.906787261962891,3.0162277221679688,48.37051550831765
89065,-9.536069641113281,-8.861272888183594,7.791297912597656,54.47554919176013
89133,-8.061785430908204,-7.355254669189454,7.525899810791016,54.77556778398644
89197,-8.229586486816407,-7.654781799316407,9.502090301513672,53.25966963701425
89264,-6.7475184631347656,-7.221882019042969,8.764424285888673,37.416242575038126
89332,-7.898025970458985,-4.662504272460938,9.631870422363281,41.8309894010013
89397,-7.896080017089844,-4.733157348632813,13.830339660644531,32.26857570288723
89465,-6.996001739501954,-5.691614227294922,9.865384826660156,28.280150642239768
89533,-6.553970947265626,-9.066496124267578,6.556815032958984,42.98066706546508
89597,-6.04547836303711,-10.308463439941407,8.112679595947267,48.31741833645638
89664,-5.9127044677734375,-9.247320098876953,6.118975524902344,45.134040668646406
89733,-6.338269500732422,-7.979007568359376,4.508773956298828,36.080979463252795
89797,-5.78442123413086,-9.816436614990234,3.067720642089844,31.50449409460881
89864,-4.574337615966797,-12.677437133789063,0.5511538696289062,30.060379549973174
89957,-5.615572357177735,-7.334597625732422,1.8145266723632814,36.80879174426811
89998,-8.354875946044922,-7.778125305175782,3.640130310058594,40.31691168625146
90064,-7.426356811523438,-7.2335577392578125,7.261250152587891,38.67054800476702
90133,-6.409221954345703,-6.8072442626953125,6.325396270751954,37.026889681591335
90197,-6.366710357666016,-8.49079330444336,6.860533447265626,39.354568807116095
90264,-6.086493072509766,-8.334368591308595,8.128396911621094,38.8058495606498
90333,-8.541537780761718,-6.1029588317871095,10.591524810791016,41.167737269759
90397,-10.012977905273438,-4.7363008117675784,11.58755355834961,32.90924559382754
90464,-8.161178741455078,-3.793411560058594,5.9815612792968755,28.762178405916423
90532,-7.122788085937501,-7.251819763183594,6.669979705810547,32.6528962586083
90597,-5.774541778564453,-8.952133941650391,8.216862945556642,38.86547123391105
90664,-5.326523437500001,-8.364755401611328,5.338199157714844,41.58090973185559
90733,-5.214256896972657,-8.553213500976563,5.702990570068359,30.224283711854866
90797,-5.512736206054687,-11.171568603515626,4.840484161376954,41.292386101319266
90864,-2.8888426208496094,-13.911770324707032,0.032332763671875,39.528408566757015
90934,-2.866688690185547,-10.046957244873047,2.0820204162597657,33.14288660947498
90997,-7.89158935546875,-8.254883880615235,3.1891181945800784,38.144473785224875
91064,-8.034392395019532,-6.2068428039550785,5.020260314941407,33.91464411839103
91133,-7.27367431640625,-5.798491973876954,6.024521942138672,41.93653224907199
91197,-6.576573944091797,-6.932982788085938,6.0221269226074226,41.358955755640196
91264,-6.166875915527344,-6.7756599426269535,6.635251922607422,38.16837630902035
91332,-8.16267562866211,-6.433920593261719,9.261241149902345,38.29432433617599
91397,-12.216695251464845,-3.8941520690917972,14.543307037353516,29.790929006383262
91465,-8.945547637939454,-4.546645202636719,8.0089453125,43.106933123433606
91532,-7.776628417968751,-8.897347869873048,8.152047729492187,48.99809562881713
91597,-6.196813659667969,-10.717562713623048,8.772507476806641,40.70000903802345
91664,-5.845194854736328,-9.267378387451172,5.927523651123047,44.09493536867576
91732,-5.564827880859375,-8.169561309814453,5.308261413574219,38.02842112739074
91797,-5.1642608642578125,-9.519753570556642,4.315825195312501,36.86099771995916
91865,-3.9972875976562503,-10.133028259277344,-2.246079254150391,42.19532135300155
91934,-4.509672088623047,-8.387807464599609,1.92320068359375,45.32448609572284
91997,-7.320526885986329,-8.89465347290039,4.4282414245605475,48.17849518025474
92064,-8.64123046875,-8.281678161621095,7.2054162597656255,48.98374094681203
92133,-7.821684722900391,-7.656278686523438,7.303761749267578,49.353812920799854
92197,-7.1332662963867195,-8.254285125732423,8.239915008544923,48.40802164773351
92264,-7.239994354248047,-8.233179016113281,9.154363403320312,35.04878459410216
92333,-7.303612060546875,-6.495143280029297,10.057884521484375,36.82956926301208
92397,-9.921368408203126,-4.942122802734375,14.582226104736328,40.92264360788348
92464,-8.583151245117188,-3.112028503417969,9.023236083984376,45.61304166140136
92532,-7.835156707763672,-6.193370819091797,6.198011169433594,43.71806458507415
92597,-6.878795471191407,-9.794881439208984,9.236692199707031,45.66166341811416
92664,-6.0254200744628905,-9.364226989746093,6.6725244140625,48.83439973667863
92732,-5.512137451171875,-9.439969482421876,6.193370819091797,51.89156112465558
92797,-4.746329956054688,-11.238928527832032,3.5651362609863284,43.23313990462066
92864,-3.053799591064453,-12.472363586425782,0.28874954223632815,42.368142751712725
92931,-2.511926422119141,-13.022469635009767,0.9107061767578125,40.178260380304245
92997,-7.915838928222657,-9.944719848632813,3.6625836181640627,42.327420627207374
93064,-9.994715881347657,-7.925868072509766,5.244044952392579,44.63445031770427
93133,-8.79211669921875,-5.971532135009766,6.59633285522461,57.128508108335666
93197,-7.253316650390626,-7.999365234375,7.077282714843751,52.29814899794053
93264,-6.766079864501953,-8.140072631835938,8.156089324951171,40.97569639431371
93330,-8.532107391357423,-3.7235069274902344,14.82322494506836,40.03977241845537
93397,-7.212301940917969,-4.384382629394532,10.454110565185548,54.18788356176725
93464,-10.609786834716797,-5.450615386962891,10.135273590087891,48.10420716306341
93532,-6.885980529785156,-9.091344451904297,9.777816925048828,52.839521823331445
93597,-7.864944763183594,-11.879596252441408,9.334888000488283,54.09344652916203
93664,-6.493047637939453,-10.80243621826172,6.463409271240235,41.358955755640196
93732,-5.962700500488282,-10.359507293701173,4.893623657226563,51.6313452902135
93797,-4.697381744384766,-11.604917449951172,0.9671388244628907,46.83488316664632
93865,-3.672912139892578,-11.677965545654297,-2.512225799560547,40.46768219660838
93934,-3.925287322998047,-12.509336700439453,1.7046551513671875,40.087278866523846
93997,-8.9286328125,-10.255773010253908,4.503834228515625,43.29092647195331
94064,-10.053393859863283,-9.208251342773439,7.597900085449219,41.453828919748744
94133,-7.825726318359376,-7.975415039062501,7.896978149414063,44.09933123331294
94197,-7.085365905761719,-9.170679473876953,8.454718322753907,46.02895204570548
94264,-6.532116394042969,-7.771539001464844,8.334967346191407,43.71344983082098
94333,-7.059020690917969,-3.911965026855469,12.891192626953126,43.456873288988476
94397,-6.395001525878906,-3.693718872070313,11.699371032714843,44.09611930846435
94464,-9.481433258056642,-5.959557037353516,11.29102020263672,47.576465110542614
94533,-7.301366729736328,-10.407407684326172,9.783804473876954,42.18036331200945
94597,-7.990683288574219,-12.131971435546875,8.88746841430664,52.281795618914735
94664,-6.881938934326172,-11.29251708984375,6.057902526855469,50.498999497678135
94732,-6.4761328125,-9.988728332519532,4.952750701904297,47.22304786874328
94797,-5.6995477294921875,-11.98078582763672,2.2502705383300783,46.757233642093745
94865,-3.066672821044922,-12.65094223022461,-2.003583526611328,44.47142520548028
94957,-5.7085290527343755,-10.182724914550782,1.9029927062988283,46.49607424406597
94998,-9.012009429931641,-9.73096435546875,3.963158569335938,37.709992051639404
95065,-9.935289459228516,-8.513695678710938,6.347699890136719,40.68705219691942
95130,-7.923622741699219,-7.800129547119141,7.232060852050782,65.33426569214487
95197,-7.435787200927734,-8.980874176025392,8.75948455810547,64.75445994014188
95264,-6.338419189453125,-8.208330688476563,9.073980560302735,54.92679387647213
95333,-8.782536621093751,-4.165986785888672,12.082873535156251,53.949259935154295
95397,-9.513766021728516,-4.045637054443359,12.396022338867189,37.07570176097936
95464,-8.535101165771485,-4.8791038513183596,8.676407318115235,48.6674797864639
95532,-7.377707977294922,-9.016200714111328,8.495283966064454,36.27058464000989
95597,-6.558311920166016,-10.978170776367188,9.162296905517579,38.87673552454447
95664,-6.360872497558594,-10.304870910644532,6.1505598449707035,46.35875641351951
95733,-5.836812286376953,-9.928852844238282,5.708229675292969,38.453461374114084
95797,-4.4792852783203125,-10.506351928710938,0.5749543762207031,44.92578813187933
95864,-2.8961773681640626,-13.687835998535157,-0.16645385742187502,43.16452626996656
95934,-5.163811798095703,-10.132130126953125,2.0645068359375003,44.368461624618206
95997,-8.711883544921875,-9.271869049072267,5.331014099121094,66.8558670810019
96065,-8.843609619140626,-7.536677398681641,7.208260345458985,50.02753366451242
96132,-7.028035125732422,-6.960974578857423,6.926097106933594,41.488493429592204
96197,-6.438411254882813,-8.55935073852539,7.909102935791016,38.521749044203034
96264,-6.315367126464844,-7.608078918457031,8.359965362548829,42.375437381428746
96332,-9.15810562133789,-3.752845916748047,14.864389343261719,40.196562253193484
96397,-7.876919860839844,-4.958738250732422,11.745924224853516,53.28367369619052
96464,-7.97346908569336,-5.997428283691407,6.928492126464844,41.948749479303785
96533,-6.395600280761719,-9.67827392578125,9.037456512451172,48.30030206081669
96597,-6.325096893310548,-10.223440246582031,8.105045471191406,45.63599728881531
96664,-5.844895477294922,-9.19492904663086,6.196663970947266,45.846703844643486
96732,-5.1483938598632815,-10.133177947998048,4.977000274658203,49.481683617271315
96797,-4.150119781494141,-10.6290966796875,0.188009033203125,45.66107373667576
96864,-1.9450552368164062,-14.624887390136719,-1.0133926391601562,50.894670652671685
96933,-5.93291244506836,-10.876831512451172,2.6171575927734376,50.045706990322465
96997,-10.439441070556642,-9.480535125732422,5.248236236572266,42.341628193907155
97065,-9.075028381347657,-6.394402770996094,7.02983139038086,38.95477796275715
97133,-7.389234008789063,-6.701414337158203,6.568041687011719,47.76381518592003
97197,-6.427184600830079,-7.494914245605469,7.024143218994141,39.93083360698062
97264,-6.051465911865234,-7.070696411132813,9.321565704345703,39.44877305963695
97332,-7.164401550292969,-4.440066833496094,13.47527801513672,39.40317221574218
97397,-7.440277862548829,-5.2735336303710945,9.768835601806641,48.45872874264217
97465,-6.94795166015625,-6.7035099792480475,8.20339096069336,47.56377432058169
97533,-6.188431091308594,-10.20368133544922,9.102122039794923,58.684304706861205
97597,-6.113287353515625,-10.581345977783204,7.841443634033204,51.8764478725122
97663,-5.4848941040039065,-8.771309967041017,5.225184173583985,46.96365126964978
97732,-5.798641662597657,-8.282276916503907,4.207001495361328,35.156089492344805
97797,-5.771248626708985,-9.271719360351563,2.8035200500488284,54.15404088047919
97864,-4.702620849609375,-12.404554595947266,0.4559518432617188,58.16694586142509
97934,-4.498744812011719,-6.665938110351563,2.609074401855469,51.11215451335622
97997,-7.566764831542969,-8.687035217285157,4.099974060058594,46.691401509258206
98064,-7.884853363037109,-7.764952697753906,5.943690032958985,45.67320503983987
98132,-8.37149139404297,-7.545059967041016,7.017257537841798,47.818343301079906
98197,-8.632398834228516,-7.905510406494141,7.400310974121094,51.44256542806504
98264,-8.347241821289064,-7.701185302734375,7.057224426269531,62.53051208433738
98332,-9.49954559326172,-6.634054412841797,8.291707305908204,46.13027417022225
98397,-9.801617431640626,-4.193080444335938,10.337952117919922,36.53694795315082
98464,-8.276888122558594,-5.155279541015625,5.6538926696777345,48.61211706373165
98532,-5.498515777587891,-9.694440307617189,7.788154449462891,44.85565279482857
98597,-4.502337341308594,-9.680818634033203,7.033274230957032,55.643322274103404
98664,-4.274960174560547,-8.613538055419923,5.895340576171876,48.73070534349692
98733,-5.665867767333984,-8.15459243774414,4.86907470703125,50.95796793604802
98797,-3.080893249511719,-11.416010284423828,2.2734722900390625,53.989741345280756
98864,-1.1346405029296875,-16.872164154052737,2.9092002868652345,51.98164790871611
98931,-3.7342845153808595,-11.13444580078125,2.6527835083007814,40.45792232729559
98997,-8.578660583496093,-6.568341064453126,2.4745042419433596,35.82063362911709
99064,-6.689588928222657,-7.20945785522461,5.61153076171875,45.83312151983078
99133,-4.830155639648438,-7.176975402832031,5.418282623291016,57.81120338162328
