relative_time,AccX,AccY,AccZ,DecibelSource
0,-0.5484594726562501,4.995411987304688,9.328002319335939,24.265112613645755
34,-0.13367202758789062,4.495451660156251,9.290280761718751,23.54108439147401
101,-0.33709899902343754,4.437671813964844,9.173972625732423,22.479732663618066
168,0.6780899047851563,4.281396789550781,7.433242492675782,25.09202522331103
237,-0.12184661865234375,3.9104681396484375,9.039103088378907,29.800033715837465
301,-1.320853271484375,4.144281921386719,9.206006011962891,30.390173219974116
368,-1.2436138916015627,3.3861085510253908,9.831854553222657,23.979400086720375
438,-1.7904267883300782,4.320615234375,9.54939193725586,30.141003215196207
501,-0.7614665222167969,3.1057415771484376,9.023236083984376,27.067177823367587
568,0.7191046142578126,3.4877471923828125,8.342601470947265,29.62369335670021
639,-0.4567002868652344,3.9351667785644535,8.727750549316406,31.766699326681493
701,0.49517028808593755,5.415588226318359,8.550219726562501,29.58085848521085
768,1.9452049255371096,6.2222607421875,11.272159423828125,31.87238619831479
837,3.1091844177246095,4.592150573730469,13.658646697998048,32.64817823009536
901,2.5568330383300784,4.633165283203125,10.989397430419922,32.309595557485686
967,0.7520361328125,4.099674682617188,9.699679412841798,32.273724422896365
1037,0.7289840698242188,2.6497897338867187,11.653117218017579,30.4688519083771
1101,0.056133270263671875,1.0511141967773439,8.681047668457031,36.036855496147
1167,-1.796114959716797,1.0223739624023438,8.791967010498047,26.503075231319364
1236,-2.2218296813964846,0.6743476867675782,9.304950256347658,29.020028913507296
1300,-1.6353492736816406,0.29533584594726564,7.856412506103516,30.195316845312554
1368,-1.578168182373047,3.054548034667969,6.857689361572266,31.16939646550756
1435,-0.7333250427246094,4.189787292480469,11.173364868164063,32.263420871636306
1500,0.5848338317871095,5.186564483642578,12.015214233398439,29.143431571194405
1567,0.8047265625000001,5.193150787353516,9.796827392578125,30.330214446829107
1634,2.326761474609375,5.635630645751953,8.221353607177734,27.299742856995554
1701,2.2939796447753906,3.6718643188476565,8.949738922119142,28.62727528317975
1768,0.9846524047851563,2.835403747558594,5.425467681884766,28.639173769578605
1835,2.652334442138672,7.042105865478516,12.24947708129883,30.588054866759066
1901,1.956431579589844,4.290228424072266,17.80502426147461,32.69045709657623
1967,-0.30386810302734374,4.546495513916016,9.442214813232422,33.73095987078727
2039,-0.34099090576171875,2.079924774169922,6.452332305908204,30.310042813635366
2100,-0.5828878784179687,1.0835966491699218,6.135141906738282,31.027766148834417
2168,0.143701171875,2.0480410766601564,3.515589294433594,28.48189116991399
2239,-2.2704785156250002,6.242169342041016,4.254901885986328,35.873741720730656
2300,-1.4096186828613282,3.339705047607422,14.163995819091797,37.88521887222473
2368,-0.12049942016601563,6.236930236816407,9.488019561767578,30.19116290447073
2439,-0.31913635253906253,5.716462554931641,8.339308319091797,27.944880466591698
2500,0.4788542175292969,3.672313385009766,7.265441436767579,29.380190974762105
2568,0.7259902954101562,2.192490692138672,7.596702575683594,30.707764628434347
2639,1.1605366516113282,5.95925765991211,2.980302429199219,31.640552918934514
2701,-0.0161663818359375,6.776109008789063,8.91321487426758,29.003671286564703
2767,0.6741979980468751,6.518644409179688,15.898738403320314,32.42789809478677
2835,-0.9343569946289063,3.0467642211914066,20.182081146240236,38.81099218389017
2901,0.1251397705078125,0.5307962036132813,9.346563720703125,31.925674533365456
2968,-1.8449134826660156,2.5114773559570316,6.509214019775391,35.35926741395569
3039,0.33799713134765624,2.6696983337402345,4.941673736572266,29.34498451243568
3100,0.8879534912109376,4.774321746826172,5.785319366455078,24.563660331290432
3168,0.6607260131835938,5.533992004394531,10.364447021484375,25.71708831808688
3239,-1.7556990051269532,5.441334686279297,14.320869598388672,29.49877704036875
3300,-3.294349365234375,2.391127624511719,10.816207580566406,28.175653695597806
3368,-1.5272740173339845,0.719553680419922,7.6597215270996095,27.151673578484576
3439,1.518292694091797,-2.0877085876464845,10.830128631591798,25.774917998372256
3501,1.9106268310546877,2.1333636474609374,6.715634765625,27.944880466591698
3568,0.20207977294921875,3.0392797851562503,10.805879058837892,27.16003343634799
3639,0.5369334411621094,4.895569610595703,10.489137725830078,28.709888137605756
3701,1.9164646911621095,5.829776916503906,12.595258026123048,29.956351945975502
3768,3.0481114196777344,5.716462554931641,11.796818389892579,33.619166186686435
3839,-0.7261399841308595,2.193538513183594,10.25592269897461,37.22880610686939
3901,-1.5296690368652344,2.7089167785644532,8.3969384765625,30.913151596972227
3968,-2.2302122497558594,2.2981709289550785,6.298901367187501,31.29045059887958
4039,-1.769769744873047,3.281027069091797,6.988966369628907,29.21686475483602
4101,-2.925216979980469,4.798571319580079,8.260721740722657,29.813655090785446
4168,-3.4142500305175782,4.625082092285156,10.00399658203125,25.024271199844325
4239,-3.1138247680664066,4.970863037109376,9.326954498291016,27.93790384690819
4301,-3.0554461669921875,3.9451959228515627,8.40127944946289,29.036325160842374
4367,-2.3340962219238284,3.3244367980957032,6.640041961669922,25.622928644564745
4439,-0.8746311950683594,2.6406587219238284,4.095633087158204,29.206450014067876
4501,-1.6527131652832032,3.1699580383300785,5.182971954345703,29.59518376972998
4567,-1.189127197265625,4.351151733398438,6.967261505126953,26.283889300503116
4639,-0.6691085815429688,1.748214569091797,17.750986633300784,28.597385661971472
4700,0.7876620483398438,3.8095779418945312,11.260034637451172,29.97386384397313
4768,1.738634490966797,3.2284863281250002,9.452992401123048,27.649229846498887
4839,0.02245330810546875,0.07888595581054687,15.936609649658203,32.96884475538547
4901,0.02484832763671875,1.5501763916015625,11.201206970214844,30.2201573981772
4967,-0.9955796813964845,2.3102957153320314,9.232650604248047,30.111473607757976
5039,0.9346563720703126,2.2514680480957034,5.133574676513672,28.819549713396007
5100,2.9496162414550784,1.838027801513672,5.446573791503907,31.631613749770185
5167,4.472998352050782,2.1776715087890626,10.848091278076172,26.803355134145633
5239,7.216193847656251,0.8660989379882813,8.26176956176758,40.4641711698399
5301,6.185437316894531,3.2221994018554687,7.619904327392579,40.27757204690553
5367,6.177054748535157,6.19157455444336,7.6305322265625,41.69703816994571
5439,10.111622772216798,0.9455836486816407,4.302951965332031,38.33848049531148
5500,11.523935852050782,-2.804418182373047,5.201383666992188,35.44811911757776
5567,4.249662780761719,0.32602203369140625,6.664141845703125,49.31910236989751
5639,1.9387683105468752,3.1247520446777344,3.6154316711425785,43.57134093086434
5700,3.4850527954101564,5.119054870605469,1.6346008300781252,50.132123268337885
5767,5.533093872070313,3.47038330078125,4.039799194335938,49.11722090997684
5839,6.3758413696289065,4.593946838378907,6.140381011962891,35.23095838252568
5901,8.45531707763672,3.2820748901367187,7.914192352294922,44.16407489943098
5968,12.069102172851563,4.349505157470704,9.649084625244141,39.60185276604611
6040,9.894574127197266,3.915557556152344,13.138478393554688,53.17336118372846
6101,5.612428894042969,3.7161721801757817,11.2230615234375,52.373023963851196
6168,2.1824615478515628,2.0866607666015624,8.07405990600586,41.647393842914326
6239,1.6196319580078127,0.8018824768066407,7.227570190429688,35.37944959291487
6300,0.6518943786621094,0.4842430114746094,8.815767517089844,28.615344108590378
6368,0.5746549987792969,0.39892044067382815,8.86591323852539,50.31513490216712
6439,2.1124072265625,2.1634510803222655,9.939929809570312,43.35738647005051
6500,3.3253349304199222,0.6557862854003906,12.83969970703125,48.38691709151223
6567,2.293081512451172,2.7599606323242187,10.380613403320313,44.23442491075262
6635,1.6208294677734376,3.421135711669922,6.483018493652344,41.2434117077496
6701,1.7964143371582033,3.050057373046875,5.984255676269531,31.826999033360423
6767,3.2190559387207034,3.570674743652344,7.850275268554688,24.955443375464483
6835,4.800966339111328,4.406686248779297,9.129964141845704,24.424797690644485
6901,5.673501892089844,4.658013610839844,12.333003387451173,30.678145111618402
6967,3.7378770446777345,3.0819410705566406,16.060252532958984,29.684829485539353
7039,0.032931518554687504,2.4542962646484376,11.01993392944336,29.97386384397313
7101,-0.07499404907226563,1.1276051330566408,8.871002655029297,32.24274014294258
7168,-0.271834716796875,0.975820770263672,5.9586589050292975,35.66790912381592
7238,0.11750564575195313,1.4653028869628908,4.635560302734375,34.98861688992884
7301,0.4650828552246094,1.648671569824219,7.589966583251954,32.84881714655453
7368,1.2292437744140625,1.1704161071777344,10.764415283203126,28.221680793680175
7437,0.5263055419921875,2.6527835083007814,12.743000793457032,26.55138434811382
7500,1.6241226196289062,2.238295440673828,12.06086929321289,27.60422483423212
7567,1.311273193359375,2.16509765625,11.048524475097658,28.155777483242673
7636,1.4383589172363282,2.630928955078125,8.46684310913086,30.65206128054312
7700,0.9193881225585938,2.703827362060547,6.21507568359375,28.830933585756902
7768,2.5798851013183595,2.688110046386719,7.371271362304688,26.94605198933569
7835,3.5857933044433596,2.469115447998047,7.986342315673829,26.45422269349092
7901,4.569397888183594,1.518292694091797,8.825048217773437,29.15927211697116
7967,2.2570065307617186,-0.7153623962402345,12.790901184082031,35.96047007545439
8035,-0.3661386108398438,-2.7340644836425785,14.672189025878907,28.09559714635268
8100,-2.0002903747558594,-2.8632458496093753,9.479636993408203,46.151290589592655
8167,-2.242935791015625,-1.1919712829589844,5.937552795410157,46.0612329172563
8237,-0.79275146484375,-1.2494517517089845,6.796017608642578,39.49048292315664
8301,2.7262806701660156,-3.444936218261719,9.177864532470704,51.04227549638254
8368,4.301604766845704,-4.061653747558594,9.878856811523438,46.30102286418712
8437,2.9473709106445316,-2.849923553466797,9.161548461914062,39.707651597807676
8501,2.388882293701172,-1.274000701904297,8.939260711669922,53.73913772526798
8568,3.9737864685058595,-1.9881655883789064,11.330987091064454,47.182358824283114
8639,3.8010456848144534,-2.082619171142578,9.138346710205079,34.02605241919915
8701,1.1903247070312502,0.5626799011230469,8.076604614257812,40.34146977106046
8767,0.7270381164550782,1.4929953002929688,7.153623962402344,39.33284772348695
8838,1.7645306396484375,1.3729449462890626,7.512727203369141,49.504914240084574
8901,1.2121792602539063,2.000889129638672,8.296197967529297,46.29205657102304
8967,1.2473561096191408,1.11847412109375,10.461744689941407,47.55074101758471
9037,1.6642391967773438,-1.7558486938476563,14.804663543701173,39.39818662821379
9101,1.5911911010742188,-3.6248620605468753,15.129039001464845,33.059958827708044
9167,-0.542322235107422,-2.1894969177246093,10.754236450195313,30.354297381845484
9236,-0.6087840270996094,0.2213896179199219,7.877817993164063,26.22214022966295
9300,-0.7030879211425781,-0.09505233764648438,8.377329254150391,19.49390006644913
9367,-1.905088348388672,0.49576904296875,7.22382797241211,20.3342375548695
9435,-0.6574328613281251,0.28575576782226564,5.831273803710938,21.4921911265538
9500,2.4527993774414063,-1.2497511291503907,6.21312973022461,28.603380065709935
9567,4.395160217285157,0.18052459716796876,2.5978477478027346,33.29804522164069
9635,7.993527374267578,-6.652017059326172,19.943627014160157,29.232440186302764
9700,-0.03622467041015625,0.7641609191894532,17.686021728515627,44.10118968359551
9767,-0.9026229858398438,2.85725830078125,9.323661346435548,46.043016699183525
9835,0.04819976806640625,1.8934126281738282,1.8911672973632814,41.51032581756442
9901,-2.301314392089844,1.244062957763672,6.930438079833984,39.041202134761996
9967,3.151396636962891,-9.028475189208985,23.78284332275391,40.264924070528394
10036,0.8583151245117188,-1.4359638977050782,8.455915832519532,36.5628990119136
10101,0.3649411010742188,3.0567933654785158,3.8411622619628907,31.42389466118836
10168,1.8062937927246094,4.4917094421386725,3.5892361450195316,31.126050015345747
10239,10.231673126220704,-5.801336059570313,14.426549835205078,38.14913181275074
10301,7.8905415344238286,-5.6326368713378905,13.842464447021484,41.26488570700375
10367,0.010777587890625,0.20851638793945312,7.754624176025391,37.953237643293136
10439,2.1306692504882814,1.7248631286621094,5.779182128906251,35.21007252408604
10500,3.876039733886719,-2.5509951782226565,10.083331604003908,30.993352776859577
10568,5.475463714599609,-7.536078643798828,17.555193786621096,36.07776603741693
10637,4.410428466796875,-4.688550109863281,12.794194335937501,37.02258163162094
10700,1.7558486938476563,-1.3501922607421877,8.426876220703125,37.55341183811548
10767,-0.7210505676269532,0.4584965515136719,7.60942611694336,35.828584622244996
10835,0.6376739501953125,-2.3261627197265624,8.022866363525392,35.22965595491986
10901,1.6063096618652344,-5.465284881591797,13.506712646484376,34.24718337331567
10967,-1.306333465576172,-1.1520043945312501,8.112978973388673,28.40106094456758
11035,-0.9690847778320313,0.16854949951171877,5.938899993896484,23.483048630481605
11100,0.3941304016113281,1.2745994567871095,6.154601440429688,25.95496221825574
11167,1.0289602661132813,-0.03442840576171875,9.912985839843751,28.530895298518658
11235,0.5060975646972656,0.7343728637695313,8.4256787109375,24.265112613645755
11300,0.45460464477539064,-0.162861328125,5.473218383789063,29.65201701025912
11367,-0.6616241455078126,-3.9237904357910156,10.430160369873047,33.3645973384853
11438,5.883515167236329,-6.464756469726563,14.349759521484376,35.59667278388058
11501,4.334236907958984,1.5530204772949219,9.131910095214844,36.991436873944835
11567,3.02490966796875,4.216581573486328,7.3718701171875,30.457140589408674
11635,1.7158818054199219,5.069358215332032,2.3918760681152347,34.05175546217989
11701,5.114713897705078,2.275867309570313,4.062551879882813,34.276483711869325
11767,9.859546966552735,-6.370602264404297,21.176912384033205,31.917303933628563
11839,-1.3885125732421875,2.529140625,10.451715545654297,29.84077033902831
11901,-2.481240234375,2.226170654296875,3.896397399902344,28.444771757456813
11968,-3.1190638732910156,1.74357421875,2.0866607666015624,27.466341989375785
12036,0.8265811157226562,-1.9814295959472656,17.402361602783206,38.18423855092079
12101,-1.093326416015625,1.0768606567382812,13.045372009277344,35.64666064252089
12168,0.09520202636718751,4.3224114990234375,3.842509460449219,30.30599721965951
12238,1.210682373046875,2.5524920654296874,4.572990417480469,26.314437690131722
12301,0.7698490905761719,1.5265255737304688,16.262931060791015,37.01567985055927
12367,-2.219883728027344,1.1320957946777344,14.349160766601564,43.60877297102039
12436,-2.648292846679688,3.7639228820800783,6.138584747314454,40.833951078896504
12500,-0.9358538818359375,3.569626922607422,7.155420227050781,28.488047010518038
12567,-0.00987945556640625,0.7876620483398438,8.795709228515625,35.818359240576484
12635,1.0759625244140625,0.49517028808593755,17.65189270019531,35.954962218255744
12700,0.05134323120117188,0.7846682739257813,16.413667602539064,38.59798547480566
12767,0.7216493225097657,0.8761280822753906,8.823102264404298,30.310042813635366
12835,-0.47975234985351567,1.466799774169922,5.232668609619141,35.056925074122
12900,-1.5314653015136719,1.8580860900878908,6.577472076416016,25.289167002776548
12967,-1.467099151611328,0.296982421875,11.07591751098633,26.483600109809316
13036,-1.773511962890625,-1.355730743408203,11.654464416503906,32.84881714655453
13100,-0.7646099853515625,-0.5601351928710938,10.532697143554689,33.569814009931314
13168,-1.4482383728027344,-2.199675750732422,12.270732879638672,25.301996982030822
13235,-1.7574952697753907,-0.34443374633789064,7.372618560791016,31.849751906982608
13301,-2.061812438964844,1.2087364196777344,8.054151306152344,23.05351369446624
13368,-0.3841012573242188,1.1907737731933594,7.098688201904297,20.755469613925307
13439,-0.49606842041015625,1.8383271789550781,9.60013641357422,24.03120521175818
13501,1.2922627258300783,0.6078858947753907,8.302185516357422,25.211380837040362
13568,0.45939468383789067,-0.4704716491699219,5.990841979980469,22.7415784926368
13639,-2.059716796875,0.4977149963378906,9.609117736816406,35.92731766393962
13701,3.05364990234375,-3.4576597595214844,19.79962646484375,35.66201718854913
13768,4.283193054199219,-0.18486557006835938,7.039112091064453,35.81380688709987
13839,3.5389407348632815,1.2774435424804689,5.015470275878907,35.16931808868013
13901,3.3721875000000003,-1.7748591613769533,6.630611572265625,36.44832328825636
13967,6.314918060302735,-6.224955139160157,19.892882537841796,37.2916478969277
14039,-2.188748474121094,4.926255798339844,10.102791137695313,38.93095666096228
14100,-4.267775115966797,5.452711029052734,8.516839141845704,40.1000297412706
14167,-0.24998016357421876,0.861009521484375,4.4194097900390625,37.42646589938736
14239,-0.4093986511230469,-0.24818389892578127,11.974349212646485,37.49195042219672
14300,2.6367668151855472,-0.731678466796875,15.429314575195313,32.595938788859485
14368,1.1126362609863283,2.7999275207519534,9.007818145751953,35.397032389478255
14439,0.3914360046386719,5.209317169189453,5.421276397705078,35.4740545966749
14501,3.256777496337891,2.8865972900390626,3.3182995605468752,34.77410687907251
14568,4.160747680664063,2.880909118652344,10.411000213623048,40.043643711077515
14635,7.001540222167969,-2.1017793273925784,16.96437240600586,40.43990665878134
14701,-1.1084449768066407,0.6721023559570313,12.177776184082031,37.07314633588708
14768,-2.0850141906738284,1.478924560546875,8.354127502441406,34.906606533561366
14839,4.7345045471191405,-0.5480104064941407,4.542004852294922,39.740047968974146
14900,2.5676106262207035,3.593577117919922,10.082433471679687,35.96157080916172
14967,4.6800178527832035,-0.3237767028808594,17.351317749023437,51.72007118971605
15035,7.105424194335938,2.817740478515625,13.846655731201173,44.54372212418845
15100,1.9591259765625002,3.7215609741210938,5.729036407470703,43.416916615730926
15168,-1.7956658935546876,1.196312255859375,9.301357727050782,41.248301494138595
15239,4.037404174804688,0.3936813354492188,6.070177001953125,34.980347236870266
15300,5.7097265625,-2.597398681640625,14.682517547607423,36.60486015784968
15368,2.339485015869141,-1.2028985595703126,11.377689971923829,32.64345507050093
15439,3.104843444824219,0.731678466796875,8.510252838134766,32.14048679411941
15500,4.126768341064453,0.006735992431640626,6.599925384521485,28.068580295188177
15567,6.42104736328125,-2.072590026855469,7.153773651123047,28.981764834976765
15639,3.909270629882813,-0.9220825195312501,7.133865051269532,32.182728535714475
15701,6.357429656982422,-0.41314086914062503,6.989265747070313,33.45569756056392
15767,7.824379119873047,-2.1715342712402346,8.829239501953126,33.14288660947498
15839,6.008056182861329,-2.551893310546875,7.955356750488281,29.73127853599699
15901,6.107150115966797,-0.38574783325195316,6.002966766357422,35.177235948337355
15968,1.1608360290527344,0.5068460083007813,7.327113189697266,35.900612308037424
16039,1.3455519104003908,1.0521620178222657,15.552508392333985,30.737183503461228
16101,10.31340316772461,0.8753796386718751,36.91832794189453,42.65501770039226
16167,11.40747802734375,0.19070343017578126,17.978214111328125,47.9039073332807
16238,7.107370147705079,-4.352947998046875,3.787424011230469,48.03934849863842
16300,-0.8110134887695313,-6.855444030761719,-0.06436614990234375,45.86519792510274
16368,1.6075071716308595,-11.33128646850586,-4.23678955078125,40.74816440645175
16438,9.408834228515625,-11.560010833740234,-1.4186000061035158,49.42399981996077
16500,18.86946075439453,-6.7370402526855475,15.813565521240236,48.16380517127938
16568,27.20352996826172,4.957241363525391,15.15658172607422,39.477277269633156
16636,12.354708251953125,11.52198989868164,13.354179840087891,48.872852644453324
16701,5.74086181640625,11.702813873291015,3.8478982543945315,45.90161672807483
16767,6.833290100097656,7.653434600830079,-3.610192565917969,36.27058464000989
16836,22.800885314941407,-0.877624969482422,7.265142059326172,55.264219922709444
16901,25.343497924804687,-8.553512878417969,9.549242248535156,47.80252487230425
16968,4.474794616699219,-12.46607666015625,2.7364595031738284,45.775377544938365
17039,-0.9607022094726563,-9.341474304199219,-2.549198913574219,43.38556091009445
17101,1.2133767700195313,-7.625442810058594,-2.0350181579589846,46.32072431957763
17167,5.451812896728516,-9.741741943359376,-1.593885498046875,39.40466677663529
17240,15.97762435913086,-13.106295318603516,-0.4531077575683594,41.01540872558349
17301,14.880106658935548,-10.035431213378907,-2.3406825256347656,47.12986233594383
17367,10.535990295410157,-5.038222961425782,-1.2237052917480469,46.53019451099613
17439,10.066865844726562,-2.9788055419921875,-0.23590942382812502,39.96248914569132
17500,10.312205657958986,-3.835324401855469,-1.4087205505371094,35.01196242027089
17568,12.021201782226564,-6.793472900390626,-2.5152195739746097,26.5991620006985
17639,11.820768585205078,-7.595505065917969,-0.7231462097167969,30.726174765452363
17701,11.552376708984376,-7.088808746337891,-2.4028033447265624,36.48164778574001
17768,13.12710205078125,-8.09082504272461,1.7259109497070313,32.69979676645324
17836,20.457957458496093,-12.634626159667969,14.213842163085939,54.429937196737946
17901,13.685440979003907,-9.640702056884766,4.847669219970704,38.18687663441514
17967,7.534132690429688,-6.387966156005859,0.1790277099609375,51.225828249585064
18039,5.81076644897461,-4.642296295166016,-0.9654922485351562,47.421829065325724
18101,6.402935028076172,-6.033353576660157,-1.6760646057128907,43.56599435724971
18167,4.8632368469238285,-6.88089111328125,-1.2663665771484376,28.524799936368566
18239,6.838678894042969,-9.444759521484375,-5.9180932617187505,31.53814864344529
18301,11.59952865600586,-12.03392532348633,-6.548881530761719,42.30346722417477
18367,20.410506134033206,-12.07808349609375,-5.210664367675782,41.33762384787346
18435,23.758294372558595,-5.085225219726563,-3.446582794189453,43.97992120883196
18500,19.501745910644534,5.277425537109376,2.345472564697266,42.29630655508505
18567,11.818074188232423,9.822124786376953,-0.5203179931640626,40.98643725817057
18639,10.102491760253907,6.403982849121094,-3.7029995727539062,46.42731544081733
18700,19.19263870239258,-5.307063903808594,-0.41044647216796876,55.803786293916254
18767,26.117837677001955,-15.265405426025392,0.34742752075195316,55.66510555948029
18839,8.84286117553711,-16.304993591308595,2.317031707763672,54.95942373989904
18901,-3.033292236328125,-13.614638214111329,-1.1729608154296876,44.872091017181866
18967,-2.006427612304688,-11.466605072021485,-4.094285888671875,54.155842710772006
19039,10.692714385986328,-11.998299407958985,-2.4206163024902345,53.44649629893085
19101,21.462368774414063,-9.710457000732422,-4.692891082763672,51.64938460878932
19167,23.69916732788086,-4.512516174316406,-3.5384916687011723,48.45352338030792
19239,12.967833251953126,6.735992431640625,-3.190016326904297,44.02433346219312
19301,7.866741027832032,7.911048889160156,-4.637955322265626,34.14639146737009
19367,11.10181365966797,-0.7382647705078126,-0.9385482788085938,37.65146790108025
19439,16.893270263671877,-7.481741638183594,-0.9801617431640626,53.94616261255681
19501,16.96437240600586,-10.592872009277345,-2.408491516113281,51.8707491724783
19567,11.071127471923829,-7.690258026123047,-1.2645703125,51.02433705681336
19639,8.79885269165039,-5.724845123291016,-1.3561798095703126,40.24608796126558
19701,8.25608139038086,-5.834417266845703,-1.349593505859375,42.83934113456609
19768,6.292015686035157,-5.313799896240234,-1.330283660888672,32.87801729930226
19839,6.158792724609375,-5.799839172363281,-2.4674688720703126,39.53566414257007
19901,8.350085906982422,-5.51378402709961,-6.487060089111329,30.14520538757924
19968,12.885803833007813,-5.199737091064454,-10.281968536376954,29.48412965778601
20039,9.918823699951172,-3.7776942443847656,-8.466693420410156,32.99725153975637
20101,8.066276092529296,-3.1534922790527347,-5.057532806396485,36.500159524718384
20167,7.617359619140625,-3.5317556762695315,-1.866768035888672,40.16699138064972
20239,8.221353607177734,-3.4313145446777344,-0.5966592407226563,36.29511534200453
20301,9.842482452392579,-4.38333480834961,-0.7240443420410156,29.415114326344032
20368,11.63739990234375,-4.859794006347657,-2.5471032714843753,27.737864449811937
20439,11.996952209472656,-3.1606773376464847,-2.649939422607422,37.43117625214742
20501,12.231364746093751,-3.3832644653320316,-1.8718574523925782,36.34376494088367
20567,13.801150360107423,-4.727020111083984,-2.2995181274414063,30.674428427763804
20639,13.510903930664064,-6.474037170410156,-1.311123504638672,37.44527673472567
20701,12.21175552368164,-7.495363311767578,0.06331832885742188,37.737133252770214
20767,10.788814544677734,-8.117319946289063,-0.4454736328125,43.77433751703389
20839,9.933493194580079,-8.336913299560548,-2.3101460266113283,38.316138553090994
20901,7.9697268676757815,-9.944719848632813,-1.2516970825195313,35.19171463821659
20967,3.7118312072753907,-7.665260009765626,-1.109941864013672,44.98310553789601
21039,4.954546966552734,-4.856351165771485,-3.374283142089844,25.70542939881897
21101,7.61855712890625,-5.978717193603516,-4.07437728881836,39.999565683801926
21168,12.473411407470703,-7.164401550292969,-3.9543269348144534,27.558748556724915
21239,14.128519592285157,-4.595892791748047,-4.214635620117187,33.55643050220869
21300,14.62967742919922,-3.4054183959960938,-2.2043161010742187,43.408405498123315
21368,14.797478485107423,-1.9011964416503908,0.9813592529296875,27.951845896824242
21438,11.021131439208984,-2.2508692932128906,-0.6060896301269532,23.72912002970107
21501,12.56711654663086,-3.3320709228515626,0.5451663208007813,26.739419986340877
21567,12.616364135742188,-5.482050018310547,0.0814306640625,24.78566495593843
21639,11.386970672607422,-6.0689794921875,-0.8378077697753906,39.018940319738206
21701,9.945617980957032,-5.720204772949219,-1.1549981689453126,47.468209521040365
21768,10.284962310791016,-6.756200408935547,-0.8872050476074219,41.81414796254284
21839,9.477391662597658,-7.629185028076172,-0.9794132995605469,41.321635960508644
21901,7.119494934082032,-7.11844711303711,-1.8037490844726562,25.58708570533166
21967,5.442232818603516,-5.8968374633789065,-3.000660095214844,32.7207378750001
22039,5.883964233398438,-5.251828765869141,-2.1465362548828124,36.50501794878367
22101,8.45292205810547,-5.57560546875,-3.2227981567382815,39.61658348637715
22168,9.968220977783204,-5.477259979248047,-3.298989715576172,41.49557791861579
22239,12.105775909423828,-5.4583992004394535,-0.5894741821289062,39.65812953036603
22301,12.576097869873047,-4.878804473876953,0.6776408386230469,37.368743616484224
22367,11.58755355834961,-3.823648681640625,0.6562353515625,28.2020145948564
22435,10.981164550781251,-4.041445770263672,-0.3746708679199219,25.888317255942074
22501,11.43621826171875,-4.824467468261719,-0.7271878051757813,22.4551266781415
22568,11.026969299316407,-3.4814602661132814,-2.2228775024414062,34.26185825244511
22639,11.336226196289063,-5.504503326416016,-3.540736999511719,28.407332346118068
22701,9.527088317871094,-5.811664581298828,-3.516786804199219,24.099331233312945
22767,6.904691619873047,-4.732109527587891,-3.5380426025390626,23.80211241711606
22839,5.340145111083984,-5.013524322509766,-2.592458953857422,22.355284469075485
22902,5.454656982421875,-5.138364715576172,-1.8486557006835938,22.479732663618066
22968,6.579418029785157,-5.1783316040039065,-1.8329383850097658,37.071441883424455
23038,9.544751586914064,-5.039869537353516,-0.8345146179199219,33.14288660947498
23101,12.865296478271485,-4.455335083007813,1.7762063598632813,42.44895333691861
23167,11.008557586669923,-1.5227833557128907,1.9125727844238283,33.86677283960837
23239,8.174051971435548,-1.2171189880371094,1.3480966186523438,21.64352855784437
23301,8.943302307128906,-2.761008453369141,0.9385482788085938,20.41392685158225
23367,9.799821166992189,-3.8333784484863282,1.808090057373047,14.14973347970818
23435,10.086026000976563,-3.6241136169433594,1.293160858154297,19.86771734266245
23501,10.08348129272461,-2.0910017395019533,-1.5907420349121095,18.388490907372553
23568,10.222841491699219,-1.5681390380859377,-3.1729518127441407,17.403626894942438
23639,10.333162078857422,-1.270557861328125,-4.0143521118164065,27.701152947871016
23701,8.324489135742187,0.6503974914550782,-4.488565979003907,27.701152947871016
23767,8.979227600097657,-1.840422821044922,-3.283122711181641,36.91700208290162
23839,18.110988006591796,-11.418105926513672,4.048930206298828,42.00357945541636
23901,9.405391387939453,-11.834989013671876,-1.4079721069335938,35.579881482249135
23968,6.690636749267578,-9.289232940673829,-0.7803273010253907,38.06451323247262
24039,5.487738189697266,-4.888983306884766,-2.4075933837890626,31.152775913959015
24101,-0.17214202880859375,-0.005538482666015625,-3.6107913208007814,33.567904603517164
24168,0.5876779174804688,-0.041912841796875,-3.6215689086914065,36.81512586638962
24239,15.646812286376955,-8.33466796875,1.240470428466797,32.93583513496117
24301,17.29383728027344,-7.854466552734375,-1.450184326171875,28.512583487190753
24368,7.853119354248047,-1.5181430053710938,-7.151228942871094,38.51930678640267
24439,4.589156799316407,0.21644989013671875,-3.489244079589844,39.51968584492911
24501,6.402785339355469,-5.6961048889160155,-1.7751585388183595,42.10853365314893
24568,14.221176910400391,-11.780352630615235,3.9176531982421876,45.77284943685706
24638,11.683204650878906,-12.083023223876953,-0.11316467285156251,42.76461804173244
24700,5.487139434814454,-4.727020111083984,-1.1665242004394532,36.5991620006985
24768,0.7857160949707032,0.3838018798828125,-2.4815396118164066,29.143431571194405
24839,7.442223815917969,-6.107000427246094,-2.2809567260742187,35.40329474790874
24900,14.37341033935547,-9.728269958496094,2.010469207763672,32.10586024905157
24968,11.317964172363283,-8.509055328369142,-1.5536192321777345,28.704039052790268
25039,6.612948303222656,-2.775378570556641,-2.9379405212402343,28.981764834976765
25101,6.0342517089843755,-3.6247123718261722,-0.2582130432128906,26.532125137753436
25167,5.909710693359376,-5.431305541992188,0.29054580688476567,29.116901587538614
25239,11.51091293334961,-10.748997344970704,1.2302915954589844,36.43650038217329
25300,11.685000915527345,-12.391531677246094,1.4266831970214844,34.85579476984679
25367,8.249495086669922,-8.928183746337892,-1.9444564819335939,29.566485792052035
25439,5.7242463684082034,-5.51857406616211,-2.8469297790527346,22.52853030979893
25501,6.235882415771485,-3.968697052001953,-1.6328045654296877,24.29752280002408
25567,7.301366729736328,-5.771398315429688,-0.8842112731933595,20.755469613925307
25639,7.167395324707032,-8.67805389404297,1.1665242004394532,29.20123326290724
25701,8.645721130371093,-12.10772186279297,-0.9153465270996094,35.95606434865603
25767,3.7137771606445313,-4.546345825195313,-0.20133132934570314,31.225435240687546
25835,5.537135467529297,-6.223907318115235,-6.180647277832032,26.294095991027188
25900,5.444478149414063,-6.931934967041016,-2.7891499328613283,22.764618041732444
25967,5.3774176025390625,-6.726262664794922,-1.9784358215332032,25.403294747908735
26036,4.812492370605469,-4.915478210449219,-2.4516018676757816,27.65668554759014
26101,5.633085937500001,-3.9913000488281254,-2.646346893310547,26.11723308007342
26167,6.889722747802734,-3.5116973876953126,-2.880759429931641,22.278867046136735
26235,7.099286956787109,-3.7009039306640625,-2.578986968994141,23.30413773349191
26301,4.151167602539063,-1.0371931457519532,-2.946921844482422,24.885507165004444
26367,7.409142608642578,-6.865173797607422,-3.4152978515625003,26.82145076373832
26435,16.152610473632812,-14.729968872070314,0.4697232055664063,41.68968646554766
26501,7.641160125732422,-10.296488342285157,-2.570903778076172,32.355284469075485
26567,3.4051190185546876,-2.9740155029296877,-2.664758605957031,36.43353961976863
26635,0.8222401428222657,0.719703369140625,-3.3165032958984377,38.147801457458044
26701,9.99247055053711,-7.1507798767089845,-2.4303460693359376,30.83860800866573
26768,14.724729766845703,-9.335935821533203,-1.6616944885253908,36.04118006192035
26835,6.955885162353516,-3.9513331604003907,-7.638016662597656,35.00236474825639
26901,3.0029054260253907,0.22752685546875,-8.012986907958984,36.89131197234498
26967,7.639064483642579,-5.309608612060547,-5.272336120605469,44.04696909410773
27035,15.88182357788086,-12.115655364990236,0.4939727783203125,41.304945885234694
27101,9.918374633789062,-11.156749420166015,-0.6412664794921875,45.87677297475044
27168,1.2710069274902345,-2.853665771484375,-1.8820362854003907,36.7052415778208
27239,0.38350250244140627,-2.0216958618164065,-2.74708740234375,31.254812657005942
27301,10.893596649169922,-8.815168762207032,-2.3065534973144532,35.22052800868822
27367,12.819940795898438,-5.861211547851563,-3.932771759033203,32.038484637462346
27438,8.714128875732422,-0.7216493225097657,-8.111631774902344,31.105897102992486
27500,7.488627319335938,-2.491718444824219,-5.892945556640625,27.24275869600789
27567,4.7415399169921875,-5.13537094116211,-4.024530944824219,41.84322265577157
27637,12.430001678466798,-11.82136734008789,-0.7170089721679688,41.80613250611603
27700,13.128449249267579,-13.157339172363281,2.063309326171875,29.637878273455552
27767,8.141120452880859,-7.692203979492188,-3.7021014404296877,39.439888750737715
27835,4.63481185913086,-4.959636383056641,-3.4875975036621094,46.32619236619118
27900,4.4017465209960935,-3.9546263122558596,-2.537373504638672,41.25936466966094
27967,5.850433959960938,-3.9439984130859376,-2.259700927734375,30.073209529227448
28035,8.017776947021485,-5.806126098632813,-1.0906320190429688,24.683473304121573
28100,8.423583068847657,-7.54715560913086,-1.4653028869628908,29.31457870689005
28168,8.439899139404297,-11.136092376708985,-1.490749969482422,28.959747323590644
28235,7.9361965942382815,-9.020841064453126,-2.419119415283203,33.30007700872759
28300,3.519331512451172,-9.06993896484375,-5.377716979980469,37.75100498879025
28367,2.515818328857422,-6.704707489013672,-1.6992663574218752,43.749315539781875
28438,4.124822387695312,-5.001100158691407,-0.9849517822265625,34.64042205438811
28501,6.17001937866211,-4.472698974609375,-0.9126521301269531,30.9968064110925
28568,6.967411193847656,-3.4446368408203125,-2.9633876037597657,23.54108439147401
28639,8.305628356933594,-3.0726603698730472,-3.9187010192871097,23.09630167425899
28701,10.684930572509765,-3.4133518981933597,-4.417463836669922,25.03790683057181
28768,5.528603210449219,-0.05014572143554688,-4.061803436279297,30.41392685158225
28839,10.001451873779297,-8.727750549316406,-3.9558238220214847,47.269715836828766
28901,14.668147430419923,-14.562766571044923,1.7116905212402345,43.020710536500744
28967,6.481222229003906,-12.506492614746094,-0.11795471191406251,45.723371144489455
29037,3.387156372070313,-5.275479583740235,-4.550986175537109,30.806264869218055
29100,0.7445516967773438,-1.8055453491210938,-4.2625360107421875,41.57940055964767
29167,6.5642994689941405,-4.82162338256836,-4.234693908691407,30.3261876085072
29236,14.332844696044923,-8.221503295898438,-4.6816644287109375,29.37016107464814
29300,12.870535583496094,-4.40923095703125,-4.495301971435547,27.781512503836435
29367,6.22705078125,1.5081138610839844,-6.878795471191407,36.607706435276974
29435,4.049828338623047,0.8225395202636719,-6.109096069335938,38.84228769632604
29500,13.980028381347656,-10.743009796142578,-2.2695803833007813,35.16403148447403
29567,13.053754577636719,-12.995076599121095,4.706063690185547,43.61973237465661
29635,3.839964752197266,-8.54258560180664,-0.06735992431640625,32.995072987004875
29700,-1.0020162963867187,-2.0709434509277345,-4.0722816467285154,28.9707700320942
29767,3.313359832763672,-2.4641757202148438,-2.607876892089844,25.888317255942074
29835,17.33470230102539,-10.348580017089844,-1.1645782470703125,34.53012391121455
29900,16.56904449462891,-5.140610046386719,-4.165388031005859,29.97386384397313
29968,8.833580474853516,-2.854563903808594,-5.874234466552735,27.024305364455255
30035,4.4810815429687505,-4.851112060546876,-3.005450134277344,28.260748027008265
30101,1.1693682861328125,-3.522924041748047,-2.1670436096191406,40.83645927695585
30168,14.236594848632814,-11.709400177001953,1.376986541748047,36.1857102812013
30239,17.771793365478516,-10.604847106933594,-0.33215927124023437,32.555137128195334
30301,12.57190658569336,-6.235283660888673,-5.464985504150391,28.573324964312686
30368,5.823489990234375,-2.3920257568359378,-5.728587341308594,32.975416678181595
30439,3.7752992248535158,-0.6126759338378907,-4.590054931640625,43.012904942113714
30500,6.677913208007813,-3.4862503051757816,-4.295168151855469,29.169800473203825
30567,14.601685638427735,-13.981375579833985,-0.8286767578125,35.333907080175514
30638,5.141508178710938,-5.4107981872558595,0.3842509460449219,51.055510576213436
30700,4.268822937011719,-2.268831939697266,-4.569996643066406,39.12009375586978
30767,8.694669342041015,-5.6416181945800785,-2.9729676818847657,36.7052415778208
30837,10.267748107910156,-5.258714447021485,-2.015558624267578,33.769417571467585
30901,9.611363067626954,-3.5356475830078127,-2.731370086669922,26.910814921229687
30967,9.180409240722657,-2.665357360839844,-1.7744100952148438,25.61101383649056
31035,11.198662261962891,-4.637206878662109,-0.9271719360351564,19.138138523837167
31100,11.337423706054688,-3.7161721801757817,0.6873706054687501,25.31478917042255
31167,8.77624969482422,-1.4916481018066408,-1.22625,29.849771264154935
31235,7.584278411865235,-1.9137702941894532,-2.5132736206054687,23.59835482339888
31300,9.60013641357422,-3.0732591247558596,-3.057092742919922,25.41579243946581
31367,11.047326965332031,-3.720363464355469,-4.116739196777344,24.487063199050798
31435,11.48262176513672,-5.2118618774414065,-5.13731689453125,26.78518379040114
31500,9.710457000732422,-8.481362915039062,-5.641019439697266,24.440447959180762
31567,9.72422836303711,-10.078541564941407,-4.1183857727050786,30.236639181977935
31635,6.9412156677246095,-4.2080493164062505,-2.4438180541992187,30.740846890282437
31700,7.000342712402344,-5.292394409179688,-4.096680908203125,25.68201724066995
31767,7.6103242492675784,-5.038522338867188,-1.5772700500488281,38.121777741587536
31839,9.603728942871093,-5.329666900634766,-1.3199551391601563,30.4688519083771
31901,8.60246109008789,-3.046315155029297,-0.2639012145996094,37.8240095249653
31968,6.666387176513672,0.4903802490234375,-0.061072998046875,31.7868923977559
32037,8.430618438720703,0.5170248413085938,-3.613785095214844,33.27767489902729
32101,14.753020935058595,-6.641239471435547,-2.2742207336425784,38.162412999917834
32167,14.83999008178711,-8.828790435791015,-2.242786102294922,41.18165485243124
32238,11.496842193603516,-10.202483825683593,-3.811523895263672,29.32473764677153
32301,3.4617013549804687,-6.330934753417969,-2.3405328369140626,38.50339854583479
32367,-2.6333239746093753,-4.811743927001953,-3.3283287048339845,45.82517883604062
32437,3.0626312255859376,-6.769073638916016,-2.2671853637695314,34.53471233722936
32500,9.124575347900391,-11.560010833740234,-1.9395167541503908,29.35003151453655
32567,10.660980377197266,-8.594677276611328,-1.4519805908203125,28.50033257689769
32636,11.843072204589845,-8.118218078613282,-4.409380645751954,33.30210784571528
32700,8.91710678100586,-3.9212457275390626,-2.512076110839844,43.689002296600066
32768,6.414161682128906,-1.2159214782714844,-3.3341665649414063,43.52664799651101
32839,7.582631835937501,-1.3177098083496095,-3.4747242736816406,28.1888541459401
32901,12.64420623779297,-6.937323760986328,-1.846410369873047,34.84584529282843
32968,11.576925659179688,-7.272776184082032,0.621507568359375,28.819549713396007
33036,7.937843170166016,-5.1061816406250005,-0.4626878356933594,30.277572046905536
33100,6.484216003417969,-4.034111022949219,-1.1497590637207031,30.46495164334708
33167,6.637796630859375,-4.611310729980469,-0.8614585876464844,41.20771292936992
33237,7.408843231201172,-5.013973388671875,0.06077362060546875,39.96730515435153
33300,8.042625274658203,-4.992268524169922,1.0916798400878907,44.17621137863894
33367,9.780361633300782,-4.773872680664063,0.16136444091796875,39.62889987391791
33439,7.862699432373048,-3.1835797119140627,-3.4525703430175785,37.02430536445525
33500,10.862162017822266,-6.742578735351563,-5.652994537353516,28.721562727482926
33568,14.17701873779297,-8.28152847290039,-6.591093750000001,38.25361195952633
33635,8.33706298828125,-4.450545043945313,-7.775281219482422,32.688119037397804
33701,4.221670989990234,-5.721402282714844,-3.137176208496094,30.84576277934331
33768,6.510561218261719,-8.865314483642578,1.1356883239746094,34.67460109507264
33839,7.3040611267089846,-6.503974914550781,0.5554948425292969,40.55340099544181
33901,6.614145812988282,-3.3518298339843753,-2.1308189392089845,36.60106221723244
33967,6.019731903076172,-2.565964050292969,-3.3726365661621096,31.760912590556813
34037,7.438780975341797,-4.099375305175782,-0.4152365112304688,27.505083948513462
34100,9.155560913085939,-5.450765075683594,-2.4069946289062503,25.05149978319906
34168,9.611961822509766,-6.127956848144532,-6.517895965576172,29.800033715837465
34235,11.52094207763672,-7.075486450195313,-4.815785522460938,44.134506510073244
34300,10.891950073242189,-5.915997619628906,-3.4874478149414063,34.466924663715275
34367,11.089090118408203,-5.921835479736329,-4.392016754150391,44.034980044519976
34435,10.48105453491211,-5.878126373291016,-2.355052642822266,42.813515816727374
34500,8.513246612548828,-6.1312500000000005,-0.9544152832031251,39.80321586008756
34568,7.09689193725586,-6.1170295715332035,-0.8978329467773438,48.21271094298006
34635,7.2495744323730476,-6.796616363525391,-0.30641281127929687,47.89369153591481
34700,7.0557275390625005,-7.586673431396485,-1.295555877685547,39.56696564894651
34767,6.2333377075195315,-7.08686279296875,-2.3031106567382813,39.571281976768134
34835,7.725285186767579,-6.625821533203125,-4.051175537109375,44.25974160919375
34900,10.664572906494142,-5.529052276611329,-5.233716430664063,48.818181641304356
34967,11.247760162353517,-5.563330993652344,-6.758146362304688,32.18535505216528
35035,9.188492431640626,-3.5248699951171876,-5.340743865966797,38.65163219506086
35101,7.777227172851563,-3.0491592407226564,-3.759881286621094,28.169038393756605
35168,7.648195495605469,-3.460653533935547,-1.5729290771484377,34.906606533561366
35239,8.745563507080078,-4.571792907714844,-0.8214916992187501,33.051363189436394
35301,10.015971679687501,-5.259313201904297,-1.2310400390625,23.856062735983123
35368,10.722352752685547,-6.448590087890626,-2.3105950927734376,29.642596301968492
35438,12.731175384521485,-8.99898651123047,-2.778372344970703,24.885507165004444
35500,8.511150970458985,-4.852459259033203,-2.1847068786621096,39.04931827395652
35568,6.879394226074219,-4.233346710205078,-3.241209869384766,24.756711883244297
35635,6.157894592285157,-3.3834141540527347,-1.0602452087402345,30.73351702386901
35700,6.541995849609376,-4.0707847595214846,-0.5236111450195313,25.50228353055094
35767,7.470664672851563,-4.651277618408203,-0.2477348327636719,25.622928644564745
35835,8.663833465576172,-5.316943359375,-0.44262954711914065,24.94154594018443
35900,9.918823699951172,-6.417305145263672,-1.1867321777343751,34.670158184384356
35967,10.448871459960937,-7.563321990966798,-2.931054840087891,33.25310371711061
36035,9.21693328857422,-8.734187164306642,-4.293970642089844,34.76541809027429
36100,6.518644409179688,-4.743186492919922,-4.518653411865235,32.89811839117621
36167,8.207582244873047,-3.9667510986328125,-5.551056518554688,27.512791039833424
36234,9.734706573486328,-3.8455032348632816,-4.565356292724609,27.38780558484369
36300,7.184010772705078,-2.9018655395507813,-3.044818267822266,26.127838567197355
36367,4.948709106445313,-3.7449124145507815,0.8469387817382813,34.69969209499959
36436,5.006189575195313,-6.288273468017579,2.26808349609375,30.285712526925373
36500,6.120322723388672,-6.240971832275391,2.0682490539550784,31.225435240687546
36568,13.070819091796876,-7.3527099609375,-3.5018179321289065,32.12986184736668
36639,13.993350677490236,-6.986122283935547,-5.408702545166016,41.28302317164351
36701,11.035202178955078,-5.623206481933594,-4.584965515136719,38.78751520173002
36768,9.418563995361328,-6.311175842285157,-2.4860302734375,38.39666556882433
36839,8.364605712890626,-6.585255889892578,-0.9815089416503907,45.28389573590048
36901,6.589746551513672,-5.08941650390625,-0.6999444580078126,43.7254380075907
36968,5.898933105468751,-4.929548950195313,-0.21450393676757815,55.519316025263365
37039,5.9040225219726565,-5.727988586425782,0.07753875732421875,47.561262165645644
37101,8.073760528564453,-6.571933593750001,-0.08457412719726563,49.04683093669124
37168,10.654543762207032,-8.540939025878906,-0.7414082336425781,43.28012438855587
37239,8.136779479980468,-8.951385498046875,-2.4146287536621096,37.092699609758306
37300,7.182064819335938,-6.282884674072266,-2.8166926574707034,34.31846045698725
37368,8.718170471191407,-5.563480682373047,-6.153104553222657,25.301996982030822
37438,8.23452621459961,-4.047283630371094,-4.752616882324219,26.020599913279625
37500,7.979606323242188,-4.1620948791503904,-2.4803421020507814,34.87703863163726
37567,8.886270904541016,-5.182073822021485,-0.46538223266601564,41.15510662384998
37639,9.483379211425781,-3.991150360107422,0.056133270263671875,30.398105541483503
37700,10.25068359375,-4.228406982421875,-3.0135333251953127,36.97403723200488
37767,13.527669067382813,-7.34357894897461,-1.6944763183593752,34.30880946452891
37839,10.15533187866211,-5.915847930908203,0.12289443969726563,48.32476978114369
37901,8.128247222900391,-4.922363891601563,0.21899459838867188,49.69122244929879
37968,7.7284286499023445,-5.550607452392579,0.3661386108398438,47.834604872321606
38035,9.478738861083984,-7.921826477050781,0.3608995056152344,53.96725762601165
38100,7.004234619140625,-10.075248413085937,0.8463400268554688,49.35048545716913
38167,5.498366088867188,-11.967762908935548,0.7435038757324219,43.92855169389535
38239,8.826694793701172,-8.60530517578125,-2.2866448974609375,40.331824137291946
38300,11.320209503173828,-8.167166290283204,-3.7447627258300784,44.20450859106068
38368,10.983260192871095,-6.345454559326172,-4.561763763427734,36.77424437701247
38439,8.001311187744141,-4.186494140625,-2.8328590393066406,40.511139167776015
38500,8.237669677734376,-3.9278320312500004,-1.3192066955566406,33.19730494330224
38568,9.385782165527344,-4.527934112548828,-0.8235873413085938,31.192558892779367
38639,11.01514389038086,-6.906936950683594,0.49906219482421876,26.830470382388498
38700,10.564730529785157,-6.5027774047851565,-1.5899935913085939,51.83053354450681
38768,10.92847412109375,-6.926396484375,-3.1316377258300783,39.641653106217355
38839,11.166628875732423,-7.787106628417969,-1.6000227355957033,35.259513412480125
38901,8.93626693725586,-6.621929626464844,-1.5480807495117188,48.82763533365059
38968,6.178252258300781,-4.8120433044433595,-1.7542021179199219,51.037113808170005
39039,6.091732177734375,-5.868995361328126,-1.6877403259277344,46.677143848429246
39103,5.18521728515625,-5.481600952148438,-0.9313632202148437,47.53360876143351
39168,5.7736436462402345,-6.521338806152344,0.021704864501953126,46.80842951524926
39240,8.875493316650392,-8.56503890991211,0.8026309204101563,38.43045810534569
39301,11.009306030273438,-9.595046997070312,-0.1675016784667969,41.84606266687136
39367,10.739566955566406,-8.518186340332031,1.2250524902343751,42.45339902695324
39441,11.076067199707031,-7.6757382202148445,1.071471862792969,46.613488119743266
39500,9.26198959350586,-6.362219696044922,0.7879614257812501,42.34086825138971
39568,7.696395263671875,-5.011728057861329,0.7273374938964844,36.03144372620182
39640,7.625293121337891,-5.212909698486328,1.5778688049316407,40.152339762467086
39701,7.667205963134766,-5.53294418334961,2.5072860717773438,36.602961602707296
39767,8.023165740966798,-5.457800445556641,2.7330166625976564,28.530895298518658
39839,8.734037475585938,-5.514382781982422,2.209405517578125,21.818435879447726
39901,10.297685852050781,-5.697601776123047,-0.04206253051757813,24.78566495593843
39968,10.433303833007812,-3.5438804626464844,-3.0684690856933594,43.45804869920424
40040,11.294463043212891,-3.9540275573730472,-4.415068817138672,31.580607939366054
40100,11.450438690185548,-4.8560517883300784,-1.5250286865234375,25.751878449276614
40168,7.504194946289063,-5.844596099853516,-0.48559020996093755,25.932860670204573
40241,3.7950581359863285,-7.073839874267579,-0.10777587890625001,39.51337518795918
40300,5.20003646850586,-8.365503845214844,1.864522705078125,43.49879487231628
40367,5.996380462646485,-7.579638061523438,2.0757334899902347,33.63047594521093
40444,7.272626495361329,-5.023703155517579,-0.20267852783203125,27.291647896927703
40500,3.8212536621093753,0.06795867919921875,0.0058378601074218755,26.93726948923647
40567,3.6685711669921877,2.4580384826660158,-1.3406121826171875,40.14100321519621
40640,16.21847351074219,-6.720275115966797,-0.013621673583984376,40.34548247098469
40700,17.778080291748047,-8.850944366455078,-1.3918057250976563,45.10826406187515
40768,6.866670684814453,-2.1047731018066407,-9.486522674560547,43.535123165388505
40842,9.481283569335938,-9.15705780029297,-5.160069580078125,53.584526438982294
40900,17.299525451660156,-20.460053100585938,6.308780822753906,50.60233085494517
40968,9.347611541748048,-15.678995361328125,-1.2461585998535156,44.0024433123815
41041,1.5438894653320314,-3.0181736755371094,-2.343227233886719,40.76640443670342
41101,-0.35221755981445313,0.5978567504882812,-3.366798706054688,41.81700704415961
41168,3.895648956298828,-2.164947967529297,-2.5676106262207035,37.209031708134575
41240,16.705111541748046,-9.105265502929688,0.7668553161621094,40.60320028688285
41304,17.3350016784668,-6.3987437438964845,-3.7645216369628907,34.81012420956573
41368,7.334298248291016,1.144519958496094,-8.297096099853515,37.414667617697546
41439,5.762866058349609,-1.0509645080566408,-2.509830780029297,41.37322456100344
41502,9.249266052246094,-6.805298309326172,-0.8595126342773438,38.44042042041016
41568,15.111824798583985,-12.684921569824219,1.1045530700683595,40.290183295464814
41640,8.735983428955079,-7.823031921386719,-0.3728746032714844,37.53353212641496
41700,5.080734558105469,-3.2455508422851564,-3.979324951171875,31.755118133634475
41767,2.132914581298828,-1.2103829956054688,-4.274960174560547,28.981764834976765
41840,4.391417999267579,-1.9586769104003907,-2.8621980285644533,32.469906992415495
41900,8.574469299316407,-6.2104353332519535,-2.4673191833496095,40.27553454050221
41967,16.30813705444336,-15.420632629394532,1.3696517944335938,35.73103783163991
42039,14.589411163330078,-9.08565628051758,-5.921536102294922,32.69512944217916
42100,8.759634246826172,-2.9740155029296877,-5.9233323669433595,35.68788212315347
42168,6.372847595214844,-1.9209553527832033,-2.113455047607422,37.28434950974255
42241,6.069877624511719,-1.29570556640625,-1.5166461181640625,18.45098040014257
42300,8.59856918334961,-3.3654515075683595,-1.4380595397949218,23.07496037913213
42367,15.36973846435547,-8.248447265625,-1.0086026000976562,40.56027758086362
42443,11.553274841308594,-4.415667572021484,-1.6899856567382814,32.90924559382754
42500,7.242239685058594,-5.814957733154297,-4.547393646240234,36.37189422148762
42568,5.392087097167969,-8.577313385009766,-3.3289274597167973,39.143431571194405
42642,4.966971130371094,-8.936865692138673,-0.4577481079101563,35.89167390546048
42701,4.804708557128906,-8.256979522705079,-0.41852966308593753,32.36285277448029
42768,6.549629974365235,-7.914491729736328,-0.22498214721679688,35.651391519697896
42838,8.053103485107423,-7.399412841796876,-0.6466552734375001,24.578818967339924
42906,6.201903076171876,-4.932542724609375,-0.9937834167480469,33.31629717629932
42968,1.0735675048828126,-0.09490264892578125,-0.6231541442871094,40.76094046682475
43038,3.027903442382813,0.6438111877441407,-2.3487657165527347,39.68529644374839
43102,13.332175598144532,-5.406457214355469,-0.9372010803222657,36.82866795662325
43167,15.210319976806641,-7.986941070556641,-0.16046630859375,34.43575879750257
43238,8.94629608154297,0.4508624267578125,-8.766519927978516,31.335389083702175
43301,7.972570953369141,-3.207080841064453,-7.478149108886719,42.16271492970176
43367,16.900305633544924,-19.031124572753907,1.5096107482910157,44.80825865259064
43438,10.840008087158203,-14.333144073486329,-0.17857864379882812,37.67823498007517
43500,4.769681396484375,-4.760700073242187,-3.127446441650391,36.2879748556671
43567,-0.05014572143554688,1.205892333984375,-5.3828063964843755,34.26511261364575
43638,1.417552185058594,-0.8845106506347656,-3.6356396484375,36.12677918316501
43700,2.8683352661132813,-1.735041961669922,-0.9868977355957032,35.61935763313781
43767,9.289532318115235,-6.836283874511719,0.2820135498046875,41.42295588289763
43844,11.88842788696289,-2.319277038574219,0.6716532897949219,37.71366970857781
43901,13.754746856689454,-0.7749385070800782,-4.814737701416016,40.07619774517403
43967,22.896087341308593,-11.533366241455079,1.6131953430175783,50.97042018466742
44043,14.644197235107423,-6.408174133300782,-0.30805938720703124,42.185092471989314
44101,10.215357055664063,-2.22497314453125,-1.0219248962402345,36.30122642859312
44168,8.400980072021484,-1.0798544311523437,2.525398406982422,33.0941722577814
44241,6.234086151123047,-1.4730867004394532,3.3464410400390627,26.51278013998144
44302,4.567002868652344,-1.9124230957031252,5.8863592529296875,39.041743682841634
44368,4.380341033935547,-0.5652246093750001,11.283236389160157,38.226256787741406
44440,-0.4770579528808594,4.223467254638672,12.922627258300782,30.068937079479007
44504,3.400927734375,5.687872009277344,11.314072265625,25.831987739686227
44568,1.7289047241210938,6.0535615539550784,6.322103118896485,28.93206753059848
44639,-1.026116180419922,5.195695495605469,5.522615661621094,26.972293427597176
44702,-0.9306147766113282,4.258195037841797,6.490203552246094,29.556877503135055
44767,-1.6590000915527345,5.492079162597657,8.530760192871094,37.566361082458485
44838,0.5162763977050782,3.8413119506835938,10.842403106689453,25.403294747908735
44903,-0.16914825439453127,5.297184448242188,7.759414215087891,27.075701760979364
44967,1.374591522216797,4.659211120605469,8.521778869628907,25.646660642520892
45038,-0.19564315795898438,4.5602668762207035,8.079598388671876,26.5991620006985
45101,0.18486557006835938,4.31627426147461,8.940757598876953,25.06505032404872
45167,0.6035449218750001,4.283043365478516,8.016729125976562,24.62397997898956
45239,0.058528289794921876,5.677693176269532,8.542884979248047,31.818435879447726
45300,0.8547225952148438,4.953199768066407,9.027127990722656,23.30413773349191
45367,0.4517605590820313,4.815186767578125,7.42979965209961,25.622928644564745
45445,0.6765930175781251,4.2870849609375,8.439150695800782,28.937617620579434
45501,0.27812164306640624,4.26358383178711,8.23018524169922,27.649229846498887
45567,-0.14804214477539063,4.343816986083985,6.836882629394531,21.072099696478684
45643,0.3279679870605469,4.120481414794922,6.395749969482422,27.032913781186615
45700,0.12005035400390626,4.176165618896484,6.458319854736328,26.444385894678387
45768,0.21809646606445313,4.548291778564454,5.184618530273438,24.099331233312945
45842,-0.20028350830078126,4.8246171569824226,7.814499664306641,29.34498451243568
45901,-2.105970611572266,6.356082458496094,13.166470184326172,43.015942118293566
45968,-0.17378860473632812,6.227499847412109,11.759545898437501,37.59290033024304
46040,-0.9749226379394532,5.670208740234376,7.971223754882813,33.436055081041715
46103,-0.16166381835937502,4.336781616210938,5.138664093017578,30.530784434834196
46168,0.23126907348632814,3.0204190063476566,5.380561065673828,36.32457292184724
46238,-1.7835411071777345,5.542524261474609,7.701334991455078,32.56477206241677
46304,-0.43349853515625003,7.319928131103516,12.443623352050782,40.0207962639312
46367,-0.599952392578125,7.203021240234375,13.697416076660158,33.96373727536507
46438,1.4483880615234375,6.357729034423828,10.01791763305664,29.02546779313991
46501,0.7129673767089844,4.927453308105469,6.516249389648438,28.785217955012065
46567,0.27916946411132815,3.3919464111328126,5.3368519592285155,23.50248018334163
46638,-0.35640884399414063,3.3774266052246094,3.920497283935547,37.03978825008386
46700,-0.1279838562011719,3.527714080810547,4.973557434082031,35.55094448578319
46767,0.07155120849609375,3.546724548339844,6.136189727783203,30.941215958405614
46838,-1.7669256591796876,6.727460174560547,11.774963836669922,31.283992687178067
46900,0.3841012573242188,5.670657806396485,15.842904510498048,29.921114877869496
46967,-0.8134085083007813,6.8690657043457035,12.069551239013672,30.83502619830267
47043,-0.6099815368652344,3.656745758056641,10.34693344116211,39.819091700907926
47100,-0.44577301025390625,3.023861846923828,6.648723907470703,27.38780558484369
47167,-1.0594967651367189,2.659369812011719,5.276377716064453,34.831592097169796
47243,-0.030237121582031252,2.3138882446289064,5.109474792480469,39.08753019184534
47300,0.0389190673828125,2.9591963195800783,5.528004455566407,29.921114877869496
47368,-1.533710632324219,6.0324554443359375,8.817414093017579,37.47489492258673
47441,1.0746153259277345,7.907755737304688,11.496393127441406,31.16275587580544
47500,4.517904968261719,6.151907043457031,11.970457305908203,28.356905714924252
47568,5.902974700927735,4.913382568359375,7.661368103027344,33.121773564397785
47640,4.179608459472656,3.7013529968261722,7.727081451416016,31.03119253545714
47701,2.0865110778808593,2.947969665527344,5.980663146972657,27.634279935629372
47768,0.5974076843261719,3.0493089294433595,5.516777801513673,26.294095991027188
47839,1.3582754516601563,2.512525177001953,7.136260070800781,29.986951583116557
47903,3.1464569091796877,3.716471557617188,10.187964019775391,36.080979463252795
47967,2.6030868530273437,1.8076409912109377,16.629818115234375,39.07196310271602
48038,1.4088702392578125,0.49112869262695313,16.986676025390626,36.8966396501577
48101,1.7241146850585938,2.022593994140625,13.248948669433595,52.42911464419822
48167,2.1372555541992186,2.0303778076171874,8.135581970214844,46.48574665308993
48238,1.8733543395996095,2.5438101196289065,5.049599304199219,31.132746924643506
48301,4.62283676147461,0.5924679565429688,7.6490936279296875,35.57507201905658
48368,5.560037841796875,-0.6668632507324219,8.820258178710938,34.56821348021599
48440,4.710554351806641,-3.303480377197266,12.430899810791017,33.098430047160704
48500,2.2113514709472657,-1.4001882934570313,12.153825988769531,30.97604328874411
48567,-0.8966354370117188,-1.5009288024902345,10.971883850097656,31.547282074401558
48645,-4.583468627929688,-0.6265969848632813,13.922248535156251,29.633155113861115
48700,-0.037571868896484374,-0.4528083801269531,10.283016357421875,32.66701966884088
48768,-0.48559020996093755,0.9951306152343751,9.363628234863281,41.36086097384098
48840,2.192790069580078,-0.16780105590820313,6.431525573730469,33.26745379565322
48901,3.1454090881347656,-0.015417938232421876,6.372548217773438,39.79320697382025
48967,1.9504440307617188,1.488504638671875,9.69698501586914,33.14077991779213
49041,1.815275115966797,-0.7872129821777344,12.76500503540039,32.28143607597742
49100,0.5035528564453126,1.7161811828613283,10.77803695678711,30.54613054556888
49168,-0.7884104919433594,0.6611750793457032,10.901979217529297,41.39595758469972
49240,-0.8686436462402344,1.8064434814453125,8.007747802734375,30.780941504064106
49301,-1.1756552124023438,3.1362780761718754,8.649163970947265,27.49736315569061
49368,-0.15522720336914064,3.2922537231445315,10.202334136962891,37.816835845073506
49439,1.678609313964844,2.6194029235839844,11.432026977539063,37.5495958772171
49501,2.6397605895996095,3.3654515075683595,12.485536193847658,38.883480101780485
49568,4.239483947753906,3.290906524658203,12.543465728759767,33.057811512549826
49637,4.740492095947266,-1.819915466308594,15.05793685913086,31.451964061141815
49703,4.456831970214844,-0.0712518310546875,7.912994842529297,27.693773260761386
49767,3.6657270812988285,-0.4998106384277344,7.597301330566407,26.042260530844704
49837,2.629432067871094,-0.18950592041015626,6.898554382324219,31.37670537236755
49901,1.5714321899414063,-1.0654843139648438,9.250463562011719,28.90979596989689
49967,-0.2832110595703125,-1.6652870178222656,12.030931549072266,30.111473607757976
50039,-1.8568885803222657,-0.7188052368164063,10.52176986694336,31.47985320683805
50100,-1.0053094482421876,0.7192543029785157,9.385782165527344,35.65257343420213
50167,0.4785548400878907,-1.3344749450683595,11.458521881103517,26.5991620006985
50240,0.8330177307128906,2.086211700439453,7.7124119567871094,23.22219294733919
50300,1.5215858459472658,1.5028747558593751,8.39933349609375,26.972293427597176
50368,2.388582916259766,1.9276913452148439,8.253836059570313,25.403294747908735
50443,4.007616119384766,2.298769683837891,7.442523193359375,26.414741105040992
50500,2.9865893554687504,0.3207829284667969,13.082494812011719,28.686444383948256
50567,3.0734088134765627,1.4733860778808594,12.84014877319336,32.62213705476417
50642,3.639980621337891,-0.8732839965820313,13.782439270019532,33.467440546048486
50700,1.0168354797363282,0.2935395812988281,11.631412353515625,25.74031267727719
50767,0.38934036254882814,0.15956817626953126,8.741671600341798,30.809870469108873
50840,0.000149688720703125,0.6144721984863282,7.817942504882813,31.248301494138595
50901,0.26375152587890627,0.9425898742675781,7.621850280761719,32.337573629655104
50967,0.13067825317382814,-0.6979985046386719,9.363927612304687,31.889284837608535
51040,-2.2773641967773437,-1.1633807373046876,10.220745849609376,29.360107957152096
51100,-3.0946646118164063,0.9761201477050782,10.236463165283203,32.14048679411941
51167,-2.4864793395996094,-0.030985565185546876,14.093492431640625,31.26780577012009
51240,-0.4908293151855469,0.559237060546875,10.721454620361328,36.776981814745106
51300,1.20948486328125,2.6927503967285156,8.469387817382813,27.596678446896306
51367,2.6291326904296874,1.7437239074707032,4.97969467163086,26.693168805661124
51441,3.3763787841796877,1.3151651000976563,5.157524871826172,27.058637122839194
51500,3.404220886230469,1.5024256896972656,5.001399536132813,29.66610986681934
51567,1.999541931152344,1.636846160888672,8.535999298095703,26.334684555795867
51643,-0.43918670654296876,3.9043309020996095,8.180937652587891,31.316186643491257
51700,-1.460662536621094,2.3343955993652346,15.456857299804689,37.49349760597477
51768,-1.285975799560547,-4.087400207519531,13.212424621582032,41.66844375831949
51840,-2.6527835083007814,-7.541018371582032,10.183623046875,30.64083435963596
51901,-4.749473419189453,-8.122259674072266,10.75169174194336,31.075491297446863
51967,-5.972879333496094,-4.2396336364746094,7.416926422119141,30.496056125949732
52041,-6.281836853027344,-0.3734733581542969,3.5974690246582033,26.803355134145633
52100,-7.000791778564453,0.3734733581542969,0.8210426330566407,27.37987326333431
52167,-8.025261383056641,-3.7985009765625004,4.201463012695313,32.97322714205303
52240,-8.549770660400391,-7.662864990234375,1.999691619873047,29.48412965778601
52300,-10.303224334716797,-10.053094482421875,2.934647369384766,30.354297381845484
52367,-8.822503509521486,-10.918295288085938,-0.12543914794921876,26.159500516564012
52442,-11.013048248291016,-11.618838500976564,1.8113832092285158,28.680563618230416
52500,-13.583053894042969,-9.239087219238282,1.8013540649414064,30.273496077747563
52568,-14.420562286376954,-4.9371830749511725,5.000800781250001,40.00997730357794
52641,-10.845995635986329,6.72760986328125,6.374793548583985,47.67830910377814
52700,-10.720406799316407,12.602143707275392,3.0189221191406252,52.79429659562979
52767,-12.739258575439454,1.1201206970214845,2.893932037353516,48.408898782498994
52838,-24.02054901123047,-14.762750701904297,3.7784426879882815,45.78364107879965
52900,-17.8812158203125,-20.363054809570315,-2.190245361328125,38.424220033576496
52967,-1.0440788269042969,-13.689781951904298,-5.587281188964844,43.790697197927464
53039,2.433040466308594,-9.408534851074219,-5.964796142578125,34.80581786829169
53100,-3.8273908996582033,-8.937763824462891,-5.112169189453125,43.21577719695799
53167,-11.30643814086914,-10.63238983154297,-2.681823120117188,51.844216870925386
53240,-13.073812866210938,-6.222111053466797,-1.169667663574219,47.386775201989664
53300,-11.118279418945313,-5.621709594726563,-0.36284545898437504,51.26371713179425
53367,-9.03551055908203,-5.670957183837891,0.5981561279296875,35.78409970331236
53441,-10.733878784179687,-5.790408782958985,2.1118084716796877,41.51737481038518
53500,-13.763428802490235,-3.0826895141601565,2.9987141418457033,47.12363444276547
53568,-12.480297088623047,-2.462978210449219,0.7943980407714845,47.58245564168938
53641,-11.10136459350586,-3.0273046875,-1.6750167846679689,37.25584972270695
53700,-12.663516082763673,-6.829398193359375,-1.2713063049316407,46.90824908399841
53767,-10.813064117431642,-7.839797058105469,-1.8058447265625002,38.43170464519898
53843,-8.004304962158203,-6.2685145568847656,-3.1430140686035157,44.9808990372419
53900,-7.827223205566407,-7.586523742675782,-3.7833824157714844,43.44392273685111
53967,-8.338410186767579,-6.888076171875,-4.467609558105469,36.21176281775035
54040,-6.412215728759766,-7.175777893066407,-3.9125637817382812,31.849751906982608
54100,-8.054001617431641,-8.247249755859375,-3.65719482421875,30.265332645232967
54167,-11.149414672851563,-6.023174743652344,-3.6149826049804688,26.570558528571038
54240,-8.675658874511718,-4.469256134033204,-3.440445556640625,29.31457870689005
54300,-6.087690582275391,-3.523971862792969,-4.307442626953125,36.291036501771366
54367,-5.377866668701172,-3.772904205322266,-2.3605911254882814,34.68937805665461
54440,-8.719367980957031,-3.344345397949219,-1.149459686279297,23.74748346010104
54500,-12.024494934082032,-4.653822326660157,1.1201206970214845,28.2020145948564
54568,-10.92413314819336,-4.623435516357422,0.9948312377929688,31.76958980586908
54641,-14.129417724609375,-6.251899108886719,1.1035052490234376,34.78277831919605
54700,-17.373022613525393,2.006128234863281,0.60114990234375,35.55094448578319
54767,-14.535972290039064,-1.071621551513672,-1.65974853515625,43.07346255369254
54841,-11.50372787475586,-5.345234527587891,-4.1129969787597656,35.69724949226159
54901,-10.810070343017578,-6.861581268310547,-3.995641021728516,45.004148777562676
54967,-10.322234802246093,-7.625891876220703,-3.7173696899414064,44.31395932929188
55039,-9.109905853271485,-8.276439056396486,-3.316652984619141,36.225248624035686
55100,-6.4411056518554695,-9.507179718017579,-2.937491455078125,47.144135922871214
55167,-6.348747711181641,-10.750943298339845,-2.152074737548828,34.82158695411276
55237,-8.7035009765625,-7.765401763916016,-0.6054908752441407,41.68202746842631
55301,-10.506501617431642,-7.6016423034667975,-2.9826974487304687,49.78230747884165
55368,-9.580676879882812,-6.6342041015625,-2.788401489257813,48.60667346444137
55440,-11.59907958984375,-6.3987437438964845,-1.5010784912109376,43.50693716924639
55500,-12.580887908935548,-6.76637924194336,-0.5590873718261719,23.324384599156055
55568,-13.970448303222657,-4.5198509216308596,1.5910414123535157,25.99883072073688
55642,-12.953762512207032,-2.3076013183593753,1.0273136901855469,42.200295939924445
55700,-13.81731674194336,-1.1790980529785158,-1.3690530395507814,46.98718040459926
55768,-11.679612121582032,-3.6345918273925784,-2.6445506286621097,44.49524680325028
55840,-11.693084106445314,-5.599705352783204,-2.1369561767578125,45.829151993702986
55901,-10.697205047607422,-6.934629364013672,-2.7059230041503906,42.296562496672124
55968,-10.132728881835938,-8.364006958007813,-2.575244750976563,38.61175835513029
56043,-10.963800659179688,-7.795638885498048,-1.9235000610351562,35.06640305566502
56101,-10.331964569091797,-7.946525115966797,-0.6188131713867188,33.0297993674825
56168,-7.731721801757813,-7.843389587402344,-1.8140776062011719,27.62678563727436
56239,-5.635780334472656,-3.9477406311035157,-4.235592041015625,34.20450859106068
56300,-6.897955627441407,-5.038073272705079,-3.1117291259765625,39.652957958116566
56368,-7.127278747558594,-3.7773948669433595,-4.736749877929688,41.198165459372156
56439,-9.507329406738283,-2.5605752563476565,-4.815486145019531,41.191568746903044
56503,-10.221194915771484,-2.2171893310546875,-5.285359039306641,36.353832040474984
56568,-11.536509704589845,-0.1389111328125,-7.627538452148438,29.51823035315912
56638,-9.552385711669922,-3.370690612792969,-7.2334080505371094,30.342272607705503
56703,-12.824730834960938,-4.655169525146484,-4.265080718994141,32.44029589030021
56767,-11.66853515625,-3.6777021789550783,-3.533551940917969,39.335379019717045
56838,-10.953621826171876,-4.458777923583985,-2.659220123291016,33.29804522164069
56902,-12.000694427490235,-5.014123077392578,1.2012519836425781,39.32372282147914
56967,-8.664881286621094,-5.0602272033691404,3.563639373779297,42.6651391990912
57038,-6.383774871826172,-4.184248809814453,1.9654129028320313,38.01197834459149
57100,-7.206314392089844,-4.373155975341797,1.9444564819335939,27.331972651065698
57167,-9.874366149902345,-4.862937469482422,1.8327886962890625,26.9810054562339
57239,-13.103002166748048,-2.5706044006347657,1.3401631164550782,20.934216851622352
57303,-13.097463684082031,-4.601730651855469,1.414109344482422,28.567288903828825
57367,-12.994777221679689,-7.101981353759766,-0.2547702026367188,44.65531556973549
57438,-10.749147033691408,-7.585326232910156,-1.0315049743652345,51.65297756199224
57501,-8.439450073242188,-7.295828247070313,-2.0749850463867188,41.89770956346874
57567,-4.226610717773438,-6.9446585083007815,-3.306923217773438,36.781540380104374
57640,-6.179898834228516,-7.391778717041016,-2.053579559326172,30.492180226701816
57700,-8.749904479980469,-5.458848266601563,-3.8300852966308594,24.913616938342727
57768,-7.190447387695313,-4.073778533935547,-5.894891510009766,20.453229787866576
57841,-1.55915771484375,-2.465522918701172,-3.8838235473632814,23.324384599156055
57903,1.3858181762695314,-0.5206173706054688,-4.487667846679687,24.885507165004444
57968,-6.737938385009766,-4.291276245117188,-5.383255462646485,30.203612826477077
58038,-18.701510009765627,-5.133574676513672,-1.6961228942871094,39.94581081259894
58104,-12.54556137084961,-5.305567016601563,0.8605604553222657,39.196532823103645
58168,-1.3950988769531252,-0.2731819152832031,-3.9055284118652347,29.79548374704095
58238,-9.131610717773437,-6.3179118347167975,-3.7980519104003907,36.07133204391567
58303,-16.668138427734377,-7.974367218017578,0.36703674316406254,34.24718337331567
58368,-13.279784545898439,-2.0589683532714846,-6.535708923339844,36.47676313240871
58437,-3.30752197265625,0.6601272583007813,-5.815406799316406,31.383026981662816
58502,-5.894741821289063,-3.0126351928710937,-4.717739410400391,30.425755124401906
58568,-14.967973937988281,-9.978848876953126,0.4697232055664063,41.929853790931624
58637,-9.466165008544923,-9.889035644531251,1.0966195678710937,48.781769804915065
58700,-2.694097595214844,-1.839225311279297,-1.6733702087402345,44.74463945321284
58767,-2.1875509643554687,-2.4743545532226565,-2.1417462158203127,32.02215775801132
58838,-12.382101287841797,-11.146271209716797,-2.3674768066406253,29.618954736678504
58900,-16.01205276489258,-7.834707641601563,-0.48035110473632814,31.152775913959015
58967,-11.952494659423829,0.02903961181640625,-6.259084167480469,35.06369717095504
59040,-6.788233795166016,-0.7777825927734375,-5.238955535888672,26.93726948923647
59100,-7.0081265258789065,-1.605561218261719,-2.754571838378906,39.73820324352684
59167,-13.852942657470704,-6.896458740234375,-4.23005355834961,38.729134416203955
59238,-18.89386001586914,-10.346634063720703,-0.6712042236328125,40.44657333234866
59300,-13.139376525878907,-8.368347930908204,-0.35581008911132816,55.41066024062901
59367,-8.646768951416016,-5.909710693359376,-0.5074447631835938,46.93463127219531
59439,-6.3707519531250005,-5.1168095397949225,-0.10313552856445313,43.9403119234873
59501,-7.288942565917969,-5.764063568115235,-0.12094848632812501,39.698816437465
59568,-9.095835113525391,-6.837032318115234,1.3587245178222658,42.346185058606345
59637,-7.380102996826173,-7.911497955322266,1.3091775512695314,37.23701893991268
59704,-6.198460235595704,-7.110513610839844,-1.0461744689941406,38.86885358986008
59768,-6.961723022460938,-4.146976318359375,-5.959856414794922,36.602961602707296
59838,-9.298813018798828,-4.763394470214844,-11.162437591552735,30.629578340845104
59904,-8.94539794921875,-4.745731201171875,-9.636660461425782,35.44564097496043
59968,-8.127798156738281,-4.094585266113281,-5.1835707092285155,38.5101360682367
60038,-7.936945037841797,-3.7375776672363283,-3.094065856933594,38.084135514003684
60100,-7.551197204589844,-3.1880703735351563,-2.4195684814453124,37.27053011353857
60167,-7.657775573730469,-2.925366668701172,-1.9833755493164062,20.253058652647702
60238,-8.297994232177734,-3.8193077087402347,-1.9404148864746096,20.453229787866576
60300,-9.288035430908204,-4.483027496337891,-1.816472625732422,21.105897102992486
60367,-7.659122772216797,-2.238145751953125,-1.7143849182128907,22.671717284030137
60439,-4.126918029785156,0.007334747314453125,-3.917952575683594,29.758911364017926
60500,-9.089248809814453,-7.498057708740235,-4.4318339538574225,31.906117978136052
60567,-15.387701110839844,-14.029275970458984,-0.3119512939453125,42.98962181920117
60637,-5.633235626220704,-7.40105941772461,-1.1690689086914063,37.28272597895017
60700,-3.9151084899902346,-1.2397219848632812,-6.104006652832031,36.177340353640176
60767,-1.2448114013671876,0.550704803466797,-2.9883856201171874,29.768083373380662
60838,-7.126679992675782,-8.072712707519532,-2.8168423461914065,31.667260555800517
60901,-18.88817184448242,-9.63561264038086,-3.017425231933594,29.329808219231982
60968,-14.630425872802736,-3.5401382446289062,-1.1130853271484376,34.87703863163726
61038,-5.945635986328125,-1.3817765808105469,-5.326224060058594,35.50961752298176
61101,0.9211843872070313,0.9596543884277344,-8.043673095703125,42.597371867512656
61168,-14.571298828125,-8.041128387451172,-3.6747084045410157,35.46542663478131
61239,-17.076189880371096,-12.262350311279297,7.477400665283204,44.714384073892994
61302,-6.407276000976563,-5.730832672119141,-1.6661851501464844,44.520625774204234
61368,-1.7727635192871094,-0.31748977661132816,-4.871020660400391,34.70704429722788
61438,-2.391277313232422,0.67060546875,-4.098626861572265,32.038484637462346
61503,-13.36944808959961,-13.649815063476563,0.9045689392089844,34.56973013635818
61567,-17.158668365478515,-9.80805404663086,3.7145256042480472,34.94988973683168
61639,-9.673783264160157,-1.3654605102539064,-5.909411315917969,36.71358003443491
61702,-6.362818450927735,-1.8760487365722658,-5.339097290039063,39.03849338096681
61768,-5.52096908569336,-2.9364436340332034,-1.2771441650390625,39.22829219666649
61837,-5.342689819335938,-2.7882518005371093,1.4459930419921876,35.953859808091416
61902,-12.067455596923828,-11.749067687988282,0.5372328186035157,39.742352774430266
61968,-15.46030014038086,-9.183702392578125,2.311044158935547,32.00029266553771
62038,-12.233011322021484,-5.386997680664063,-0.7596702575683594,42.67289089431131
62100,-7.6754388427734375,-2.4279510498046877,0.5080435180664062,42.565253248481085
62167,-5.74610092163086,-1.9422111511230469,-1.415306854248047,34.250448745513886
62239,-7.534282379150391,-5.151237945556641,-1.4582675170898438,32.692793897718985
62300,-11.349997558593751,-8.62536346435547,1.0758128356933594,32.060158767633446
62367,-8.188721466064454,-8.825497283935547,2.673889617919922,37.881683711411675
62439,-7.566764831542969,-3.509601745605469,-2.102378082275391,40.941915249095324
62500,-8.000263366699219,-4.855752410888672,-5.674849090576172,34.78277831919605
62568,-8.793613586425781,-4.506528625488281,-3.5411860656738283,25.774917998372256
62639,-6.741830291748047,-4.141288146972657,-2.8181895446777343,45.27384977365458
62701,-5.9635986328125,-3.5606455993652344,-2.1275257873535156,32.397998184470985
62767,-5.9320143127441405,-3.247347106933594,-1.2034973144531251,29.934362304976116
62839,-7.233707427978516,-4.070335693359375,-1.7771044921875,27.435097647284298
62902,-9.4507470703125,-3.7170703125,-2.7619065856933593,22.55272505103306
62968,-9.782008209228517,-1.19990478515625,-1.7568965148925781,27.520484478194387
63038,-11.993209991455078,-6.3054876708984375,-2.7872039794921877,35.747255835940734
63100,-14.05113052368164,-11.726614379882813,-0.6994953918457032,32.51151343175354
63167,-7.947872314453125,-9.237740020751954,0.4076023864746094,36.422666189026735
63238,-1.7462686157226563,-3.6049534606933595,-2.425106964111328,30.10723865391773
63301,-3.210373992919922,-2.525697784423828,-3.2057336425781253,23.891660843645326
63368,-4.71624252319336,-3.083288269042969,-2.1067190551757813,30.56142262059052
63437,-11.064690856933595,-10.659333801269533,-0.95561279296875,33.13023110323238
63500,-15.085180206298828,-10.977122955322265,0.4608915710449219,30.874264570362854
63567,-11.119177551269532,-2.5908123779296877,-3.61408447265625,30.409976924234904
63635,-6.136189727783203,-1.396146697998047,-4.3254052734375,31.818435879447726
63700,-5.269192657470703,-0.7707472229003907,-4.821324005126954,30.74450718954591
63768,-5.786067810058594,-3.3066238403320316,-2.3896307373046874,28.055008581584
63837,-11.516451416015625,-6.935228118896485,-1.1621832275390627,33.500540935790305
63901,-16.598084106445313,-8.35906723022461,-2.013013916015625,29.319661147281728
63968,-16.01983657836914,-10.964100036621094,-0.39517822265625,37.67897616018091
64038,-8.045169982910156,-6.147865447998047,-0.02604583740234375,28.561244442423003
64100,-4.0585102844238286,-3.9543269348144534,-0.8120613098144531,31.41763230275788
64168,-1.4244378662109376,-2.2273681640625003,-1.6601976013183595,26.63700925389648
64238,-2.6693989562988283,-1.512454833984375,-1.5347584533691407,27.363965022766426
64300,-4.936883697509766,-4.889282684326172,-3.306324462890625,35.74262829707027
64368,-12.602143707275392,-11.950997772216798,-2.654729461669922,42.42913946818925
64438,-12.811707916259767,-6.109844512939453,-4.3254052734375,30.718820073061256
64500,-7.965984649658203,-1.8621276855468751,-11.86058578491211,31.628629933219262
64568,-5.379812622070313,-1.9857705688476563,-6.201454010009766,27.307822756663892
64637,-6.267616424560547,-1.5265255737304688,-3.8404138183593752,33.178544893314694
64700,-15.324532470703126,-9.147328033447266,-3.2516880798339844,36.13313161455459
64768,-17.129479064941407,-9.020990753173828,-0.8454418945312501,34.626974081017174
64835,-12.943733367919922,-8.594377899169922,-2.4604335021972656,31.676126727275303
64900,-6.454278259277344,-4.744683380126953,-3.988455963134766,31.35768514567822
64967,-3.755989379882813,-3.047662353515625,-4.541855163574219,30.149403497929367
65035,-5.004992065429688,-4.715494079589844,-6.874005432128906,26.972293427597176
65100,-7.1191955566406255,-11.007809143066407,-6.888225860595703,26.13841821876069
65167,-9.08146499633789,-10.927725677490235,-1.9499949645996095,44.49756012062128
65235,-8.495882720947266,-8.93477005004883,-0.8813671875000001,40.95448326538122
65300,-10.814411315917969,-8.095166015625,-1.6561560058593752,47.37963506970083
65367,-12.76350814819336,-7.967032470703125,0.48289581298828127,38.58597344994693
65434,-11.56075927734375,-7.980953521728516,2.542462921142578,37.663384752512876
65501,-11.557915191650391,-4.929548950195313,0.3342549133300781,45.885182040652694
65568,-9.82721420288086,-7.037166137695313,2.83809814453125,45.33924504819994
65639,-12.74913803100586,-5.9532701110839845,1.2795391845703126,36.51665603922935
65701,-18.177449798583986,-3.938459930419922,-1.793570251464844,43.90617214336786
65768,-15.436050567626953,6.060596923828125,-2.391576690673828,50.80565161942844
65839,-13.926439819335938,2.342029724121094,-1.6805552673339845,49.8800123947578
65901,-11.509565734863282,-1.6483721923828125,-3.506907348632813,38.49480837243986
65968,-11.539503479003907,-4.762047271728516,-4.745581512451172,42.803734661501196
66039,-9.47993637084961,-10.220745849609376,-2.0279827880859376,45.6875304534647
66101,-4.955445098876953,-12.16520233154297,-3.8333784484863282,48.748701317676215
66168,-6.180048522949219,-12.360097045898438,-0.8186476135253906,41.8304195729064
66237,-7.533983001708985,-11.034603424072266,-0.6872209167480469,52.92803026470008
66300,-9.781858520507813,-6.760840759277344,-0.809366912841797,55.47310635947749
66367,-9.5465478515625,-3.9944435119628907,-1.5702346801757814,51.063405109352395
66435,-8.826395416259766,-3.2720457458496095,-1.9716998291015626,46.54003174669913
66500,-10.01971389770508,-4.0091130065917975,-0.961450653076172,43.414740940266576
66567,-12.75347900390625,-4.226161651611329,-1.7000148010253908,31.2515582958053
66634,-17.132622528076173,-1.7251625061035156,-0.31689102172851563,34.79431337197737
66700,-12.490326232910157,-2.8934829711914065,-5.373974761962891,38.74481817699467
66767,-13.6372412109375,-4.862638092041016,-5.48025375366211,51.20327102849161
66835,-16.09677658081055,-9.167536010742188,-2.867736511230469,48.9291786783085
66900,-13.390105133056641,-10.930569763183595,-3.071612548828125,48.43126839694776
66967,-4.565056915283203,-13.966257019042969,-0.26584716796875,53.25217958798295
67036,-3.1211595153808593,-14.408437500000002,0.7677534484863282,55.782115803961645
67100,-5.08941650390625,-10.399923248291016,-2.1441412353515625,50.46171176112058
67168,-7.184010772705078,-8.981023864746094,-3.294049987792969,50.57688920883919
67235,-9.941576385498047,-7.366780700683594,-5.686824188232422,51.836228314433264
67301,-8.801098022460938,-4.5673022460937505,-6.22989486694336,38.64689034136851
67368,-8.709039459228515,-1.6040643310546876,-5.716312866210938,48.711816608152446
67439,-8.006699981689454,-1.8456619262695313,-1.7515077209472658,30.39414119176137
67500,-7.580087127685547,-3.664080505371094,-0.8969348144531251,31.309766916056173
67568,-11.500135345458984,-8.188422088623048,-1.3048365783691407,27.67897616018091
67639,-13.128299560546875,-7.621251525878907,-2.6568251037597657,25.06505032404872
67700,-15.192207641601563,-8.268355865478515,-3.087778930664063,39.31864513492032
67768,-3.9809715270996096,-10.15772689819336,-8.678952026367188,54.17461728397228
67839,-5.313201141357422,-11.326795806884766,-2.511327667236328,55.08707440344311
67901,-5.577252044677735,-11.369008026123048,-2.70876708984375,40.23705042622037
67968,-5.759273529052734,-7.694449310302735,-1.7274078369140626,32.54306332331286
68039,-5.73891586303711,-4.596192169189453,-1.1475137329101563,44.350795384044936
68100,-4.906796264648437,-3.5759138488769535,-0.7213499450683594,37.191654940892136
68168,-4.161795501708984,-3.6744090270996095,-1.2750485229492188,28.494194137968996
68238,-4.832101593017579,-5.127736816406251,-1.8989511108398438,27.16003343634799
68300,-7.734416198730469,-8.784781951904296,-1.7607884216308594,26.444385894678387
68368,-11.541150054931641,-11.592493286132813,-1.7456698608398438,22.85557309007774
68439,-13.545631713867188,-12.349020080566406,-3.642974395751953,38.02705327074352
68500,-11.086246032714845,-6.862629089355469,-2.839145965576172,46.20677283847404
68568,-9.225465545654297,-4.210294647216797,-3.700155487060547,44.26543791568096
68638,-5.342839508056641,-2.644999694824219,-0.4686753845214844,35.13217600067939
68700,-4.037853240966797,-2.4063958740234375,-0.2377056884765625,26.493348587121417
68768,-4.884043579101562,-3.5450779724121095,-0.568817138671875,24.216039268698314
68839,-6.192023620605469,-5.347030792236328,-0.9916877746582031,31.061908972634154
68901,-9.50149154663086,-8.145461425781251,-3.5645375061035156,35.165353738958
68968,-12.540022888183595,-7.0627629089355475,-7.785160675048829,27.846172926328755
69039,-13.950539703369142,-3.3822166442871096,-6.23423583984375,38.20267157160964
69100,-11.190728759765626,-4.409380645751954,-5.088817749023438,47.27118142500036
69168,-10.671009521484375,-6.926695861816406,-0.6999444580078126,49.856599512618665
69239,-7.686815185546876,-6.755601654052735,0.11316467285156251,33.43999069057161
69300,-6.248007202148438,-7.0645591735839846,-0.42391845703125003,41.97390841133298
69368,-6.835984497070313,-8.26850555419922,-1.1500584411621095,33.24282455297693
69439,-8.183033294677735,-7.763755187988282,-2.3751109313964847,28.26722520168992
69500,-8.453670501708984,-9.769134979248047,-3.9020855712890627,39.8109342314593
69567,-7.564519500732422,-7.792794799804688,-3.5112483215332033,37.93580867368156
69639,-9.185498657226564,-6.810387725830078,-4.490212554931641,40.89056879759785
69700,-9.221124572753906,-4.465663604736329,-4.18933822631836,37.407573233077706
69768,-9.221423950195312,-1.8083894348144531,-1.520687713623047,34.622482153549974
69839,-8.880433044433595,-5.6151232910156255,-0.7584727478027344,26.532125137753436
69900,-7.993527374267578,-7.495662689208984,0.40386016845703127,27.24275869600789
69968,-8.364905090332032,-6.445296936035157,0.029788055419921876,25.78639209968072
70039,-11.260034637451172,-4.139192504882812,-3.7507502746582033,25.05149978319906
70100,-14.235846405029298,-3.127446441650391,-6.940916290283203,31.068705444786538
70168,-12.839849395751953,-0.7008425903320313,-6.107449493408203,46.928204908170116
70239,-12.215198364257812,-5.610632629394532,-4.325554962158203,46.01386312645053
70300,-12.447215881347656,-7.653883666992188,-3.7018020629882815,39.022205282793145
70368,-9.789342956542969,-6.510860595703125,-3.3796719360351566,39.445813642269265
70439,-6.658154296875001,-5.090015258789062,-2.638114013671875,39.25105726809664
70500,-5.3402947998046875,-4.349056091308594,-2.241887969970703,32.87577809078706
70568,-5.40840316772461,-5.702391815185547,-2.851420440673828,25.658478186735177
70638,-7.430997161865235,-6.515500946044922,-3.3561708068847658,31.254812657005942
70700,-9.861492919921876,-7.053631896972656,-5.059329071044922,31.986570869544227
70768,-11.645333404541017,-6.436315612792969,-4.8103967285156255,32.63399331334002
70839,-12.360995178222657,-2.032174072265625,-6.73239990234375,38.9470365260923
70901,-9.93259506225586,-1.4527290344238282,-4.598287811279297,41.77680759848778
70968,-5.27622802734375,-2.684966583251953,-3.6949163818359376,26.570558528571038
71038,-3.8395156860351562,-2.728226623535156,-1.7809963989257813,28.344207036815323
71100,-5.915398864746094,-4.961133270263672,2.149230651855469,29.47433721887051
71168,-12.287498016357423,-6.477330322265625,2.9919781494140625,29.73127853599699
71239,-13.873899078369142,-4.318818969726562,-1.6613951110839844,33.90405156480081
71300,-14.548845520019531,-2.9527597045898437,-4.858746185302735,23.99673721481038
71368,-14.18135971069336,-1.0705737304687502,-3.3588652038574223,36.083120426973274
71439,-10.035431213378907,-2.711012420654297,-3.0612840270996093,36.15529223637133
71500,-7.251819763183594,-3.301384735107422,-2.55069580078125,30.013009330204184
71568,-8.630153503417969,-5.296286315917969,-2.1679417419433595,31.235249809427323
71635,-11.153905334472658,-7.891140289306641,-2.302811279296875,34.64638559095033
71700,-8.52103042602539,-7.148983612060547,-1.8473085021972657,41.27331609380022
71768,-7.711364135742188,-7.0293823242187505,-2.569706268310547,47.84503177285203
71839,-7.195686492919922,-4.800367584228516,-0.7023394775390626,48.098558765326715
71900,-5.935457153320312,-3.5976187133789064,-0.6679110717773438,45.47614737452407
71968,-4.950804748535156,-2.5773403930664065,-0.9250762939453125,41.22772729138599
72036,-7.034022674560547,-3.3343162536621094,-3.0457164001464845,37.740057302582095
72100,-10.344688110351562,-2.4613316345214846,-1.3754896545410158,31.728946977521765
72168,-13.479319610595704,-1.3895603942871095,-0.19070343017578126,29.339931638312425
72239,-14.305301971435547,-2.1444406127929687,-1.430724792480469,31.075491297446863
72300,-15.412100372314454,-4.697232055664062,-1.090781707763672,33.471347829100196
72368,-12.852872314453126,-2.1110600280761718,-3.250789947509766,44.10439786210347
72439,-10.3225341796875,-5.239254913330078,-2.353106689453125,26.17000341120899
72500,-8.541687469482422,-4.804858245849609,0.01466949462890625,33.8327665040765
72568,-6.115981750488282,-5.151387634277344,0.10208770751953125,31.03461622094705
72635,-5.767506408691407,-5.847140808105469,0.4788542175292969,31.420764610732846
72700,-6.925049285888672,-6.9729496765136725,0.6078858947753907,29.84077033902831
72768,-8.846902770996094,-7.521558837890625,0.34937347412109376,26.17000341120899
72839,-10.935060424804687,-9.608069915771486,-2.2002745056152344,24.84299839346786
72901,-9.447453918457033,-6.512357482910157,-0.9851014709472656,23.560258571931225
72968,-8.7322412109375,-4.943769378662109,-3.8505926513671875,22.355284469075485
73039,-8.41849365234375,-2.1700373840332032,-2.661016387939453,25.50228353055094
73100,-7.422165527343751,-1.513802032470703,-1.6102015686035156,23.76576957056512
73168,-6.723568267822266,-2.7159521484375,-1.696721649169922,24.377505628203878
73239,-7.848029937744141,-4.724325714111329,-0.5821394348144532,26.61812685537261
73300,-8.733438720703125,-5.298531646728516,-1.1302995300292968,20.3342375548695
73368,-10.297386474609375,-4.835843811035157,-2.3867866516113283,24.13299764081252
73439,-10.594518585205078,-5.691614227294922,-2.998265075683594,26.702458530741243
73500,-12.068353729248047,-8.668324127197266,-1.9143690490722658,28.59138297294531
73568,-9.524393920898438,-6.140830078125,-1.3367202758789063,37.225516620009586
73638,-9.095236358642579,-5.787564697265625,-0.12244537353515626,31.37670537236755
73700,-7.0151618957519535,-3.977828063964844,2.2830523681640624,35.45307116465824
73768,-5.264851684570313,-4.37614974975586,2.818488922119141,32.038484637462346
73837,-4.68750228881836,-5.421276397705078,1.12805419921875,34.23409727733093
73901,-7.190597076416016,-5.620661773681641,1.504072265625,26.263403673750425
73967,-11.507170715332032,-5.350323944091797,4.183500366210938,22.671717284030137
74035,-12.275522918701173,-2.951711883544922,2.588417358398438,25.809249756756195
74100,-11.054961090087891,-5.882916412353516,0.8854087829589844,37.18916686014861
74168,-9.910141754150391,-7.9697268676757815,1.5133529663085938,36.762362167633114
74235,-7.685018920898438,-6.629713439941407,0.4602928161621094,45.155161979832826
74300,-7.116950225830078,-5.788163452148438,-2.2661375427246093,27.20159303405957
74368,-1.407223663330078,-9.776020660400391,-3.993545379638672,34.65977368285823
74435,0.029937744140625,-11.612850952148438,0.4650828552246094,27.596678446896306
74500,-13.047617340087891,-18.42293930053711,-3.112178192138672,31.078880251827986
74567,-19.849921875,-14.545702056884766,-2.658321990966797,28.94869656745253
74635,-16.111446075439453,-8.997789001464843,-7.751929779052735,49.73848000230163
74700,-10.36998550415039,-3.0554461669921875,-8.175848236083985,55.039159160725205
74768,-9.882149963378907,-0.5673202514648438,-4.428391113281251,43.98200507219428
74836,-10.790610809326173,-0.8846603393554688,-1.7031582641601564,37.85187420029362
74901,-9.577832794189453,-0.5378315734863282,-1.5623011779785156,28.109042806687007
74968,-9.904453582763672,-1.4305751037597656,-0.5786965942382812,34.88691698316941
75039,-11.329490203857423,-5.4830978393554695,2.4134312438964844,52.13260025706099
75100,-16.901353454589845,-13.512400817871095,8.453820190429688,41.128060172668846
75168,-17.689464569091797,-16.69223831176758,8.365054779052734,48.5395360401047
75238,-11.267219696044922,-13.974789276123047,6.761439514160156,47.318143141307345
75300,-4.138743438720703,-6.270909576416016,2.9365933227539065,40.51538390515327
75368,-3.2227981567382815,-0.686173095703125,1.8016534423828126,30.281644194244702
75437,-3.0802944946289066,0.6433621215820313,3.584146728515625,27.596678446896306
75500,-3.0626312255859376,0.4113446044921875,6.160888366699219,34.63743721247059
75567,-3.239114227294922,0.8297245788574219,6.879543914794922,29.47433721887051
75635,-1.6685801696777345,1.3618679809570313,10.256970520019532,35.94171479114912
75700,-0.002245330810546875,3.1927107238769534,12.608580322265626,38.71164132802949
75767,0.3047662353515625,1.6340020751953126,15.497273254394532,31.1293997608408
75833,-2.4971072387695314,4.496200103759766,8.907227325439454,33.6660971039243
75900,-2.3848406982421877,5.215005340576172,5.6943086242675784,26.148972160331347
75968,-0.5667214965820313,2.9451255798339844,4.735702056884766,24.487063199050798
76034,0.5008584594726563,3.0252090454101563,4.573589172363281,26.042260530844704
76100,0.9681866455078125,5.4143907165527345,8.009544067382812,37.57547853469244
76168,0.22243743896484375,3.9606138610839845,15.154785461425782,43.98304662903492
76238,-0.6825805664062501,7.477999420166016,10.383457489013672,31.939589780191866
76300,0.01916015625,5.7471487426757815,8.644972686767579,36.00428325732131
76368,0.8385562133789063,4.551734619140626,5.936055908203126,27.41939077729199
76438,0.214354248046875,3.962110748291016,4.83599349975586,33.70698092575577
76500,0.9467811584472656,4.8207252502441404,5.196294250488282,37.36316807904109
76568,1.0319540405273437,4.728367309570313,6.924151153564454,28.66877814337499
76639,1.7260606384277344,5.771847381591797,8.046068115234375,37.62228284286474
76700,1.576970672607422,7.739655303955079,11.409124603271485,46.46099711737442
76768,-4.0159986877441405,4.642296295166016,16.428636474609377,39.33689708957895
76838,-2.4502546691894533,5.605992279052734,10.369087371826172,43.37279516037941
76901,-0.5652246093750001,5.087021484375001,6.697672119140625,35.88943642740015
76968,-0.49292495727539065,4.791535949707032,5.824238433837891,34.53624073591451
77037,0.1531315612792969,4.5515849304199225,5.869743804931641,37.187507347396654
77100,-0.7346722412109375,5.049449615478516,7.484286346435547,32.0112389720738
77167,-2.376757507324219,5.382507019042969,9.667496337890626,25.2244423350632
77235,-1.082548828125,6.583609313964844,7.841443634033204,38.87898488096872
77300,-1.8317408752441406,6.0555075073242195,4.945116577148438,33.38854746252323
77368,-1.593735809326172,2.7172993469238285,5.166955261230469,28.779469516291883
77435,-2.4959097290039063,-0.04056564331054688,1.2766950988769532,30.047511555910013
77500,-9.1825048828125,-3.2000454711914066,1.4349160766601563,29.84077033902831
77568,-11.298504638671876,-4.730013885498047,2.0776794433593753,25.84331224367531
77635,-11.398945770263673,-8.20294189453125,-0.3442840576171875,22.833012287035498
77700,-10.662477264404297,-6.209686889648438,-0.011376342773437501,24.36162647040756
77768,-8.708440704345703,-4.923262023925782,0.3058140563964844,36.05843539058089
77835,-9.292376403808595,-5.849685516357422,-0.611927490234375,38.19346484080453
77900,-9.677974548339844,-5.708678741455079,-2.1537213134765625,33.86677283960837
77968,-16.044984283447267,-10.655142517089844,-2.332449645996094,33.8721180031373
78035,-16.530424804687502,-5.621859283447266,-0.6505471801757813,43.992755799507215
78101,-10.10174331665039,-5.4655842590332036,-3.607947235107422,43.789064000232614
78168,-6.239624633789063,-5.272785186767578,-2.1619541931152346,38.60816963864538
78239,-4.771028594970703,-4.846471710205078,0.16241226196289063,39.772204466353855
78301,-5.135820007324219,-5.695805511474609,-0.5357359313964845,31.1092624226642
78368,-6.672674102783203,-4.696932678222656,-0.801134033203125,25.910646070264992
78438,-8.905730438232423,-7.155869293212891,-1.661993865966797,29.781805169374138
78501,-10.25352767944336,-10.964249725341798,-1.4019845581054688,30.09450895798694
78568,-8.740025024414063,-10.169851684570313,-0.1191522216796875,30.77731179652392
78637,-7.785160675048829,-6.9904632568359375,-0.7774832153320312,32.26857570288723
78700,-7.295528869628907,-5.2277288818359375,-1.9285894775390626,31.580607939366054
78768,-7.27846435546875,-2.245181121826172,-2.8586054992675782,23.838153659804313
78835,-8.155789947509765,-2.12677734375,-2.1618045043945315,24.28134794028789
78900,-8.401878204345703,-3.647465057373047,-0.16420852661132812,27.535830588929066
78968,-9.05122787475586,-6.244115295410157,-1.2701087951660157,32.662316966898935
79035,-14.139297180175783,-11.505075073242189,0.1191522216796875,34.67460109507264
79100,-13.148058471679688,-8.931027832031251,-1.2793894958496095,39.690429673058134
79167,-8.41460174560547,-3.074756011962891,-6.405629425048828,32.957869402516096
79234,-5.375920715332032,-2.9356951904296875,-4.1903860473632815,35.20745471519482
79300,-4.591102752685547,-2.7150540161132812,-2.0731887817382812,31.652443261253108
79368,-4.403692474365235,-3.1561866760253907,-1.166224822998047,31.550322287909704
79440,-7.704328765869141,-7.242688751220704,-2.3414309692382815,28.88179493918325
79500,-12.541819152832032,-10.883118438720704,-1.7443226623535157,31.354506993455136
79568,-13.223052520751954,-6.727310485839844,0.6201603698730469,26.702458530741243
79639,-8.05968978881836,-4.675078125000001,-0.6939569091796876,32.32996110392153
79700,-5.216951293945312,-3.838767242431641,-2.9223728942871094,26.074550232146688
79768,-5.31454833984375,-1.1493099975585939,-3.1774424743652347,25.250448070368453
79839,-7.713310089111329,-0.7664062500000001,-1.4037808227539064,30.44539760392411
79901,-10.754984893798829,-5.334307250976563,-0.3637435913085938,49.4130765401259
79968,-19.55039474487305,-11.366163940429688,0.24818389892578127,49.76386665477523
80039,-14.268927612304688,-8.716972961425782,-1.2900173950195313,47.4807943981176
80100,-9.645791473388673,-7.230713653564454,-5.68622543334961,51.45168426327156
80168,-6.099515991210938,-5.0374745178222655,-3.556454315185547,42.97694869693074
80238,-4.097279663085938,-4.008364562988281,-0.5541476440429688,32.48708735600918
80300,-3.064577178955078,-4.052223358154297,0.641865234375,34.53165392525857
80367,-5.054539031982422,-5.920787658691406,0.7644602966308595,26.464037262230697
80439,-12.298724670410158,-9.819729766845704,-0.6806346130371094,29.800033715837465
80500,-14.31113983154297,-4.546345825195313,-1.3644126892089845,27.20159303405957
80568,-12.964989166259766,-4.185446319580079,-0.20207977294921875,24.800069429571504
80640,-8.99808837890625,-4.0954833984375005,1.7066011047363283,30.472748673841792
80700,-5.751340026855469,-5.562881927490235,-1.0002200317382812,30.476641946015597
80767,-4.207450561523438,-5.272485809326172,-2.4806414794921876,31.271047983648078
80839,-4.835843811035157,-4.751269683837891,0.028590545654296876,20.934216851622352
80902,-3.2623159790039065,-5.729186096191406,-2.063009948730469,21.398790864012366
80968,-4.309388580322266,-5.945785675048828,-1.4085708618164063,32.29169702539101
81035,-12.142299957275391,-11.908336486816406,-0.238304443359375,32.273724422896365
81100,-16.71918228149414,-8.898395690917969,0.7147636413574219,32.857822737793946
81168,-14.147380371093751,-1.0473719787597657,-4.460574188232422,31.61667412437736
81235,-8.624165954589845,0.09205856323242188,-4.85949462890625,28.014037100173553
81300,-5.738766174316407,-0.49517028808593755,-2.5738975524902346,22.30448921378274
81367,-6.301446075439453,-2.3245161437988284,0.1945953369140625,26.24282095835668
81438,-8.03334457397461,-3.5354978942871096,-0.4125421142578125,27.944880466591698
81500,-10.343340911865235,-4.571044464111329,-1.3251942443847657,29.48412965778601
81567,-13.978830871582032,-11.07501937866211,-0.8098159790039063,29.02546779313991
81639,-11.279943237304687,-11.308533782958985,1.7682728576660156,33.83456296524753
81700,-7.884553985595703,-6.328839111328126,0.4421804809570313,33.64550995353972
81767,-3.8483473205566407,-3.916006622314453,-3.2467483520507816,31.17602691690084
81839,-3.3757800292968754,-2.1272264099121094,-3.8109251403808595,30.751818546186914
81901,-5.046904907226563,-1.7235159301757814,-2.6958938598632813,21.931245983544617
81968,-6.379583587646485,-2.0637583923339844,-1.6509169006347657,21.5836249209525
82036,-8.609646148681641,-3.7314404296875003,-1.5919395446777345,31.15943176939055
82101,-16.208594055175784,-11.264974365234375,0.9599537658691407,37.3471984165568
82168,-15.88900863647461,-10.820398864746094,-0.798739013671875,30.61829307294699
82235,-8.76816650390625,-3.500321044921875,-6.782096557617188,39.83310485794115
82300,-4.908143463134766,-2.907254333496094,-7.087461547851563,34.33449793761596
82368,-3.634292449951172,-2.588117980957031,-3.2265403747558596,27.558748556724915
82439,-3.044668579101563,-2.1237835693359375,-0.8788224792480469,27.60422483423212
82500,-3.735781402587891,-2.901715850830078,-1.0217752075195312,25.69373909615046
82568,-12.34153564453125,-10.570568389892578,-2.5035438537597656,35.313511645830594
82639,-18.494490509033206,-8.650660858154298,-1.1546987915039064,33.97244581010386
82700,-14.720688171386719,-8.173303527832031,0.01107696533203125,28.959747323590644
82768,-6.271508331298828,-4.089645538330078,-3.356320495605469,31.058506743851435
82838,-2.9488677978515625,-2.571951599121094,-4.826563110351563,28.536982117761745
82902,-4.827610931396484,-1.2323872375488283,-2.3704705810546876,24.563660331290432
82968,-6.330635375976563,-1.0942245483398438,-1.5492782592773438,22.944662261615928
83034,-7.067403259277344,-2.9291088867187502,-0.239501953125,28.954225460394078
83100,-7.707023162841797,-6.934329986572266,-0.19160156250000002,36.98013503939181
83168,-14.069542236328125,-16.365467834472657,-2.8934829711914065,34.82015576450712
83238,-17.35625747680664,-5.38684799194336,-5.073848876953125,39.22102366807607
83300,-12.875026245117189,-1.0916798400878907,-8.884324951171875,41.289805239666116
83368,-6.433321838378906,-3.051105194091797,-3.3986824035644534,31.32579847659737
83439,-4.938679962158203,-4.194277954101563,-1.9730470275878906,35.449357658815025
83500,-4.84078353881836,-5.23790771484375,-0.6331832885742188,22.013971243204512
83568,-6.090235290527344,-5.602399749755859,-0.15133529663085937,38.635607645262425
83639,-8.309819641113283,-5.119204559326172,0.154478759765625,25.831987739686227
83700,-9.666598205566407,-5.205125885009766,-0.6878196716308594,28.182258936139554
83768,-10.514734497070313,-6.421197052001953,-1.3001962280273438,23.654879848908998
83836,-9.733658752441407,-5.920787658691406,-0.3791615295410156,27.641761323903307
83901,-8.658594360351563,-6.978338470458985,0.7559280395507812,39.2236209678479
83968,-8.998238067626954,-8.502918090820312,2.7595115661621095,45.623523527768064
84034,-9.609566802978517,-7.5383239746093755,3.6413278198242187,27.543483357110187
84100,-10.030042419433594,-5.017865295410156,3.869752807617188,25.899496013257078
84168,-9.147328033447266,-4.495601348876954,3.2877630615234374,36.2293896921149
84237,-9.107061767578125,-4.725074157714844,2.5414151000976566,27.737864449811937
84300,-11.905791778564454,-11.34415969848633,0.5385800170898438,32.591158441850666
84368,-9.110803985595703,-10.903925170898438,1.549427947998047,40.44970705292769
84439,-8.075407104492188,-14.979200592041016,-4.074826354980469,32.412973871099936
84500,-7.087012481689453,-8.734336853027344,-6.437962188720704,34.98172660636544
84568,-7.178023223876954,-6.743476867675781,-6.910978546142578,50.054808099794016
84635,-5.936654663085938,-2.7866052246093753,-3.0311965942382812,46.11107000988242
84700,-4.731510772705079,-2.455044708251953,-1.5262261962890626,33.63799945479109
84768,-5.297483825683594,-3.9374121093750003,-0.3113525390625,23.654879848908998
84835,-6.86936508178711,-5.4031640625,-0.010777587890625,25.68201724066995
84901,-8.67041976928711,-5.713917846679688,-1.2928614807128906,29.148718175400504
84968,-10.373578033447266,-4.559967498779297,-2.4517515563964847,23.424226808222063
85034,-10.941197662353517,-4.661606140136719,-4.076173553466797,29.339931638312425
85100,-14.547049255371094,-9.193881225585939,-2.192191314697266,31.16275587580544
85168,-10.513536987304688,-5.2311717224121095,-1.37713623046875,35.97585501752205
85238,-8.338709564208985,-5.6645205688476565,-0.7092251586914062,31.883659260631486
85300,-5.240452423095704,-3.6645295715332034,-0.3369493103027344,29.894498176666918
85368,-4.242777099609375,-2.810705108642578,-1.0361453247070314,33.106933123433606
85435,-5.906866607666016,-3.904779968261719,-1.2008029174804689,30.78456818053293
85500,-10.724747772216798,-6.179000701904298,0.22782623291015627,30.047511555910013
85568,-11.128757629394531,-9.202712860107422,2.185754699707031,33.170181010481116
85638,-5.9348583984375,-13.306878204345704,0.3088078308105469,38.43917638006393
85700,-7.084018707275391,-15.284116516113283,-0.10702743530273438,39.692294798626435
85768,-7.276368713378907,-9.004075927734375,-1.6193325805664063,41.624150361064466
85834,-8.712631988525391,-4.44800033569336,-5.497917022705078,50.19365574572488
85901,-6.402485961914063,-1.0858419799804688,-3.6625836181640627,48.76165860747878
85968,-5.797144775390625,-1.8544935607910158,-1.6694783020019532,25.37819095073274
86039,-6.697971496582031,-3.882925415039063,1.1729608154296876,30.707764628434347
86100,-9.532626800537109,-4.319417724609375,-1.101409606933594,24.668676203541096
86168,-11.278296661376954,-5.239105224609375,-2.850821685791016,25.118833609788744
86239,-13.330978088378908,-7.8700341796875,-4.427642669677734,36.54272827097711
86300,-13.116174774169922,-3.9067259216308594,-5.258564758300782,32.20892249219519
86368,-9.23130340576172,-3.945944366455078,-5.088817749023438,38.644517471581835
86439,-9.539662170410157,-5.010231170654297,-1.3699511718750002,37.52048447819438
86500,-7.075935516357422,-4.357438659667969,-0.6990463256835938,31.892094895823064
86568,-5.648354187011719,-3.952530670166016,-0.7728428649902345,43.3308437114365
86638,-5.392536163330078,-4.384682006835938,-0.11555969238281251,40.258381642297
86700,-6.7933232116699225,-5.591622161865235,-0.5414241027832032,38.58837851428585
86768,-10.606793060302735,-6.241720275878906,-1.0606942749023438,29.057958803678687
86838,-13.748908996582031,-8.3202978515625,-3.0326934814453126,34.245549766067136
86901,-9.658964080810547,-8.48600326538086,-3.3160542297363285,28.1888541459401
86968,-9.528136138916016,-4.997956695556641,-2.0109182739257814,28.007170782823852
87039,-7.579937438964844,-3.7365298461914063,-1.9643650817871094,27.810369386211317
87100,-6.638694763183594,-3.0529014587402346,-0.058677978515625,23.483048630481605
87168,-5.458997955322266,-3.11113037109375,0.012723541259765625,26.857417386022636
87239,-6.123017120361329,-2.568359069824219,-0.27542724609375,25.563025007672874
87300,-6.954837341308594,-4.5972399902343755,-0.2561174011230469,28.175653695597806
87368,-9.444460144042969,-5.19524642944336,1.1406280517578125,26.884198220027105
87438,-11.914773101806642,-4.5988865661621094,-1.8055453491210938,37.1717102683231
87500,-13.172308044433594,-6.697821807861328,-2.046544189453125,32.98197867109815
87568,-15.242053985595703,-0.6423143005371094,-1.5795153808593752,46.69363376415619
87639,-13.270054779052735,-3.8299356079101563,-2.919379119873047,50.14793462087175
87700,-12.039014739990234,-6.187083892822266,-2.3231689453125,44.27778137224173
87768,-10.155930633544923,-6.444398803710937,-2.1034259033203124,47.3232137137678
87834,-8.662186889648439,-6.1787013244628906,-1.471739501953125,40.47469574619856
87901,-8.358767852783204,-6.079757080078125,-1.2570858764648438,41.0897071687948
87968,-8.221054229736328,-6.275250549316406,-0.4896318054199219,36.65956029453957
88039,-6.577921142578125,-8.278385009765625,-0.9675878906250001,28.926510338773003
88100,-6.612948303222656,-10.146350555419922,-0.9038204956054688,43.7278316770235
88168,-9.031319274902344,-7.442672882080078,1.2163705444335937,39.818186071706634
88240,-9.871821441650392,-7.233108673095703,-1.7540524291992188,52.16487873647488
88300,-10.552605743408204,-5.988297271728516,-0.47136978149414066,46.709690746932196
88368,-12.42146942138672,-6.687044219970703,2.146087188720703,48.2665779187587
88437,-12.614867248535157,-3.164868621826172,4.123624877929688,32.06825876031849
88500,-11.789184265136718,-2.4939637756347657,0.2567161560058594,33.042750504771284
88568,-11.091634826660156,-2.342478790283203,-1.0785072326660157,39.73589623427257
88639,-16.467256164550783,-5.67904037475586,1.153052215576172,40.586537415723704
88700,-14.011163635253906,-4.539759521484375,-0.0568817138671875,39.98172121939441
88767,-13.707744598388672,-7.47770004272461,-2.109712829589844,50.44143697694952
88839,-11.962823181152345,-8.72460708618164,1.7836907958984376,41.99151571205089
88901,-8.558901672363282,-7.520361328125,0.89334228515625,36.97054892272575
88968,-6.681805114746094,-5.535189514160156,0.7354206848144531,38.99765801944386
89039,-6.810537414550781,-4.55293212890625,0.9367520141601563,35.571461423183635
89100,-6.48810791015625,-4.154610443115234,-0.5608836364746094,30.982975364946977
89168,-7.468868408203125,-4.6288243103027344,-0.9226812744140626,42.572464649073716
89239,-9.665251007080078,-7.155270538330078,-1.9005976867675782,37.119758543517555
89300,-11.366463317871094,-5.413492584228516,-1.1298504638671876,32.12720154417842
89368,-12.385394439697267,-4.667893066406251,-2.4273522949218753,32.42044239369551
89434,-10.232271881103516,-2.491868133544922,-2.8698321533203126,27.084209001347126
89500,-8.123606872558595,-1.9806811523437502,-1.0002200317382812,30.29789470831856
89568,-7.977510681152344,-3.483705596923828,0.7008425903320313,31.78401341533755
89639,-7.833809509277344,-4.170627136230469,1.3747412109375001,32.304489213782745
89700,-10.09306137084961,-3.9303767395019533,-0.5427713012695313,36.27673031766616
89768,-12.858111419677735,-6.018384704589844,1.5628999328613282,33.80211241711606
89838,-12.16520233154297,-6.83583480834961,-0.09086105346679688,36.34880140766526
89901,-11.891571350097657,-2.821033630371094,-2.7388545227050782,31.57456768134226
89968,-15.311210174560548,-5.866300964355469,-2.931354217529297,33.95151591504543
90039,-13.299094390869142,-9.97091537475586,-3.4513728332519533,45.222224649962556
90100,-9.754914550781251,-7.703131256103516,-1.6337026977539064,34.7246389660699
90168,-6.58435775756836,-5.190306701660156,-0.44023452758789067,41.33953844517957
90239,-5.057083740234376,-3.6848872375488284,-0.7340734863281251,44.46443960831864
90300,-5.106930084228516,-4.226011962890626,-1.2090357971191408,39.63929422026558
90368,-7.461084594726563,-4.333638153076172,-2.6493406677246094,40.761669393449324
90435,-7.9451779174804695,-5.691314849853516,-0.7896080017089844,25.276299008713387
90500,-8.162376251220703,-8.746910705566407,-1.624871063232422,28.518696007297663
90568,-13.110486602783205,-11.586954803466798,0.7267387390136719,42.138098446415015
90636,-17.74559783935547,-11.07501937866211,4.133055267333985,38.95146189375992
90700,-14.394067382812501,-5.274731140136719,1.4796730041503907,36.58964842664435
90768,-9.651030578613282,-1.803150329589844,2.4709117126464846,42.84836637642396
90839,-7.847730560302735,-3.971840515136719,3.582649841308594,38.08683509128969
90901,-6.235283660888673,-3.780089263916016,1.7869839477539062,27.21810615212547
90968,-8.484805755615234,-4.278253326416015,3.6748580932617188,26.55138434811382
91039,-12.919783172607422,-5.330714721679688,3.3630564880371097,23.443922736851107
91100,-16.559913482666015,-2.1534219360351563,3.39374267578125,37.31749883527264
91168,-14.416221313476564,-5.6062916564941405,-0.10298583984375001,32.46252312299322
91239,-11.351793823242188,-6.818021850585938,-0.036524047851562505,35.7611089412084
91300,-10.028545532226563,-7.052733764648438,-0.30326934814453127,44.08138165612535
91368,-9.598190460205078,-7.925868072509766,-0.012723541259765625,37.15836275164994
91434,-9.778265991210938,-8.929830322265625,0.7418572998046875,49.19444210465237
91500,-7.334597625732422,-10.615475006103516,-0.33290771484375004,44.31074137951586
91568,-6.210884399414063,-8.213569793701172,1.191372528076172,50.47512398499493
91639,-6.094875640869141,-7.175179138183594,1.7492623901367188,46.064566076361515
91700,-7.563471679687501,-6.213578796386719,0.5451663208007813,47.62033018118081
91768,-9.038953399658203,-5.855673065185547,-0.9870474243164064,40.10087846998524
91837,-12.426409149169922,-6.594087524414062,0.4843927001953125,40.702226334609584
91901,-14.539864196777344,-5.126988372802734,2.092348937988281,35.47651658359969
91968,-13.545032958984375,-4.449796600341797,-1.7453704833984376,37.11891549880579
92035,-12.094399566650392,-2.4963587951660156,-1.1135343933105468,29.73127853599699
92100,-13.496683502197266,-3.5679803466796876,-2.1740789794921875,25.06505032404872
92168,-12.293036499023438,-3.9306761169433595,-1.4121633911132814,54.54291353413011
92239,-12.858560485839844,-7.062912597656251,0.5102888488769531,43.16494539222311
92300,-10.995384979248048,-6.701863403320313,2.0616627502441407,51.90936487241461
92368,-8.368347930908204,-6.424789581298828,1.3347743225097657,41.35609636028679
92439,-7.27367431640625,-6.587950286865235,2.0212467956542968,45.142023047108005
92500,-6.9871701049804695,-6.221512298583985,3.276237030029297,42.40299582002712
92568,-6.879843292236329,-6.616091766357422,4.6816644287109375,42.079842467661564
92638,-7.057523803710938,-7.21185287475586,3.587140502929688,42.76760422557778
92700,-9.416767730712891,-8.960666198730468,3.1226564025878907,35.494937132150135
92768,-12.72803192138672,-6.404431915283204,-0.40850051879882815,31.97004728023046
92835,-13.344899139404298,-5.1467472839355475,-2.664758605957031,39.153470623241915
92901,-10.452463989257813,-6.54558837890625,-3.104544067382813,36.27058464000989
92968,-6.315217437744141,-6.612948303222656,-1.818867645263672,33.49277527467955
93034,-3.9776783752441407,-4.980742492675781,-0.7336244201660157,23.201462861110542
93100,-2.7653494262695313,-4.102818145751954,0.05718109130859375,23.59835482339888
93168,-4.152365112304688,-4.454137573242187,1.3483959960937502,22.648178230095365
93234,-7.268285522460938,-6.613996124267579,1.5284715270996094,27.916906490201182
93300,-13.342504119873048,-10.025701446533203,0.19055374145507814,20.934216851622352
93368,-13.206437072753907,-2.5054898071289062,1.5959811401367188,25.526682161121933
93439,-10.066117401123048,-2.8035200500488284,0.6328839111328125,35.16138576717074
93500,-7.530240783691407,-4.219425659179688,0.3237767028808594,25.774917998372256
93567,-5.623056793212891,-3.417243804931641,0.7469467163085938,17.92391689498254
93637,-5.1133666992187505,-3.4599050903320316,-0.7545808410644531,32.990712600274094
93700,-5.926326141357422,-3.600762176513672,0.5800437927246094,39.73912570419705
93768,-9.097481689453126,-4.23723861694336,0.6448590087890625,36.962689967455326
93834,-15.109729156494142,-10.031838684082032,1.9140696716308594,40.232524596337115
93901,-15.582146759033204,-10.925630035400392,2.555336151123047,39.16822284595912
93968,-7.67648666381836,-5.756279754638673,-3.813020782470703,36.2096843564429
94038,-3.4682876586914064,-1.4760804748535157,-3.826043701171875,30.740846890282437
94100,-3.6037559509277344,-2.058668975830078,-0.5195695495605469,20.791812460476248
94168,-5.000950469970704,-3.496578826904297,0.32183074951171875,22.4551266781415
94239,-6.998546447753907,-3.673510894775391,-0.36164794921875004,24.18301291319746
94300,-9.927655334472657,-3.8766384887695313,-1.47533203125,26.702458530741243
94368,-15.370636596679688,-8.287366333007814,-0.08906478881835939,27.47411807886423
94438,-12.348421325683594,-13.735137634277345,1.3564791870117188,26.532125137753436
94500,-6.970255279541016,-7.200775909423829,0.9114546203613282,33.80211241711606
94568,-4.606221313476563,-4.303550720214844,-1.5144007873535157,23.384564936046047
94635,-4.943619689941406,-1.964963836669922,-1.8356327819824219,22.068258760318496
94700,-5.077142028808594,-0.6643185424804687,-2.0682490539550784,23.57934847000454
94768,-5.513933715820313,-2.8562104797363284,-2.1369561767578125,21.367205671564065
94834,-7.467970275878907,-4.746030578613282,3.61887451171875,26.570558528571038
94900,-11.553723907470705,-9.90340576171875,1.0841954040527344,28.305886686851444
94968,-15.289954376220704,-11.951297149658204,1.0749147033691406,33.891660843645326
95039,-13.106744384765626,-4.472998352050782,-4.005370788574219,35.51571973674254
95100,-7.671097869873047,-2.391127624511719,-6.999145202636719,26.159500516564012
95167,-3.7619769287109377,-0.7785310363769532,-5.2383567810058596,28.779469516291883
95237,-3.758683776855469,-0.34817596435546877,-2.3334974670410156,28.830933585756902
95301,-5.41513916015625,-2.1276754760742187,-0.48753616333007815,37.46244871720198
95367,-12.158316650390626,-8.853189697265625,-0.8170010375976563,30.870712059065355
95436,-17.589771881103516,-7.809260559082031,1.2850776672363282,33.50829273582968
95500,-16.585210876464846,-7.822133789062501,2.2712269592285157,34.36639631692661
95568,-8.170908508300782,-3.9151084899902346,-0.5357359313964845,36.29307640073749
95634,-3.8806800842285156,-2.8794122314453126,-3.4253269958496095,32.16429830876251
95700,-2.9141400146484377,-1.1033555603027345,-4.17451904296875,20.492180226701816
95768,-4.226910095214844,-0.9095086669921876,-2.964585113525391,21.903316981702915
95834,-5.296585693359376,-2.2339544677734375,-1.2502001953125002,29.772662124272927
95900,-8.316555633544922,-8.007598114013673,0.2731819152832031,45.72964489481747
95968,-22.050645446777345,-14.450350341796875,1.812880096435547,39.60993708942336
96035,-17.877922668457032,-1.5215858459472658,0.17678237915039063,32.45759355967277
96100,-8.782686309814453,-4.521946563720704,-5.610632629394532,42.512000554721816
96168,-6.6488735961914065,-3.0648765563964844,-3.768413543701172,34.71731651480051
96237,-5.244194641113282,-3.5965708923339847,-0.7286846923828125,31.96452541703389
96300,-5.380561065673828,-5.618117065429688,-0.04805007934570313,23.324384599156055
96368,-9.186546478271485,-5.4079541015625,-0.8096662902832031,20.606978403536118
96435,-13.159883880615235,-4.524640960693359,-3.304977264404297,27.283537820212285
96500,-12.837154998779297,-2.651436309814453,-1.3597723388671876,27.41151598851785
96568,-8.245154113769532,-2.411485290527344,-0.6348298645019531,26.9284691927723
96636,-7.9291612243652345,-4.746180267333985,-0.6641688537597656,22.7415784926368
96700,-8.6460205078125,-5.756878509521485,-0.5504054260253907,27.558748556724915
96768,-8.953630828857422,-3.9315742492675785,0.4263134765625,26.830470382388498
96839,-8.95782211303711,-3.739972686767578,1.4013858032226563,38.663464227496014
96900,-8.92474090576172,-4.588258666992187,1.1524534606933594,32.11654400553182
96967,-9.43203598022461,-5.25227783203125,1.2567864990234376,22.69512944217916
97039,-8.396788787841798,-5.3862492370605475,1.0686277770996093,26.875289612146346
97100,-7.229067077636719,-5.021757202148438,-0.27931915283203124,29.99130541287371
97168,-7.8676391601562505,-3.647315368652344,-2.623594207763672,23.50248018334163
97236,-10.379415893554688,-4.247866516113281,-3.2515383911132814,27.259116322950483
97300,-9.077872467041017,-3.4117053222656253,-3.4455349731445315,22.671717284030137
97368,-6.519542541503907,-2.8241770935058597,-2.8554620361328125,28.09559714635268
97438,-6.673123168945313,-2.655926971435547,-1.66693359375,22.14843848047698
97500,-6.709946594238281,-2.2049148559570315,-0.7792794799804688,23.560258571931225
97568,-5.291346588134766,-1.1067984008789062,-0.9743238830566406,22.50420002308894
97639,-4.93418930053711,-0.7186555480957032,-2.6526338195800783,34.709981696608736
97700,-13.15389633178711,-8.930578765869141,-1.8326390075683594,36.66985718329661
97768,-14.978452148437501,-10.197244720458984,3.765719146728516,33.422252293607905
97839,-9.010362854003906,-3.7612284851074222,-1.5844551086425782,34.6044678388072
97901,-4.689298553466797,-1.124611358642578,-2.6765840148925784,33.70698092575577
97968,-5.101241912841797,-0.8479866027832031,-1.495689697265625,37.03978825008386
98039,-15.578554229736328,-9.216633911132813,0.6520440673828125,39.60708551688556
98100,-15.989749145507814,-7.480394439697266,3.7410205078125003,36.456187382426954
